"","rt","stimulus","keypress","word","color","block","blocknum","wordtype","trialtype","trialindex","timeelapsed","internalnodeid","keypressed","participantresponse","correctresponse"
"1","981","rejected","77","rejected","colorblue","test","num1","typenegative","singlestim","19","119716","100010","edm","paicipantresponseblue","correct"
"2","382","museum","77","museum","colorblue","test","num1","typeneutral","singlestim","19","75547","100010","edm","paicipantresponseblue","correct"
"3","358","alone","67","alone","colorblue","test","num1","typenegative","singlestim","19","404851","100010","edc","paicipantresponsered","incorrect"
"4","1421","pleasure","77","pleasure","colorblue","test","num1","typepositive","singlestim","19","88716","100010","edm","paicipantresponseblue","correct"
"5","788","suicide","77","suicide","colorblue","test","num1","typesuicide","singlestim","19","70525","100010","edm","paicipantresponseblue","correct"
"6","703","paper","67","paper","colorblue","test","num1","typeneutral","singlestim","19","150534","100010","edc","paicipantresponsered","incorrect"
"7","568","museum","77","museum","colorblue","test","num1","typeneutral","singlestim","19","79368","100010","edm","paicipantresponseblue","correct"
"8","467","suicide","77","suicide","colorblue","test","num1","typesuicide","singlestim","19","58605","100010","edm","paicipantresponseblue","correct"
"9","579","pleasure","77","pleasure","colorblue","test","num1","typepositive","singlestim","19","73073","100010","edm","paicipantresponseblue","correct"
"10","1","dead","1","dead","colorblue","test","num1","typesuicide","singlestim","19","94172","100010","ed","incorrect","762"
"11","581","success","67","success","colorred","test","num1","typepositive","singlestim","19","139843","100010","edc","paicipantresponsered","correct"
"12","514","pleasure","77","pleasure","colorred","test","num1","typepositive","singlestim","19","97595","100010","edm","paicipantresponseblue","incorrect"
"13","540","happy","77","happy","colorblue","test","num1","typepositive","singlestim","19","99024","100010","edm","paicipantresponseblue","correct"
"14","420","funeral","67","funeral","colorred","test","num1","typesuicide","singlestim","19","95469","100010","edc","paicipantresponsered","correct"
"15","396","paper","77","paper","colorblue","test","num1","typeneutral","singlestim","19","66347","100010","edm","paicipantresponseblue","correct"
"16","705","museum","77","museum","colorblue","test","num1","typeneutral","singlestim","19","151002","100010","edm","paicipantresponseblue","correct"
"17","460","pleasure","67","pleasure","colorred","test","num1","typepositive","singlestim","19","87685","100010","edc","paicipantresponsered","correct"
"18","813","pleasure","67","pleasure","colorred","test","num1","typepositive","singlestim","19","107351","100010","edc","paicipantresponsered","correct"
"19","1794","happy","67","happy","colorred","test","num1","typepositive","singlestim","19","72503","100010","edc","paicipantresponsered","correct"
"20","1015","museum","67","museum","colorred","test","num1","typeneutral","singlestim","19","66422","100010","edc","paicipantresponsered","correct"
"21","paper","77","paper","colorblue","test","num1","typeneutral","singlestim","19","98819","100010","edm","paicipantresponseblue","correct","300"
"22","567","rejected","77","rejected","colorblue","test","num1","typenegative","singlestim","19","32155","100010","edm","paicipantresponseblue","correct"
"23","658","funeral","77","funeral","colorblue","test","num1","typesuicide","singlestim","19","90081","100010","edm","paicipantresponseblue","correct"
"24","430","success","77","success","colorblue","test","num1","typepositive","singlestim","19","94464","100010","edm","paicipantresponseblue","correct"
"25","success","77","success","colorblue","test","num1","typepositive","singlestim","19","1192017","100010","edm","paicipantresponseblue","correct","583"
"26","514","happy","77","happy","colorblue","test","num1","typepositive","singlestim","19","169142","100010","edm","paicipantresponseblue","correct"
"27","769","rejected","67","rejected","colorred","test","num1","typenegative","singlestim","19","59618","100010","edc","paicipantresponsered","correct"
"28","488","funeral","67","funeral","colorred","test","num1","typesuicide","singlestim","19","88604","100010","edc","paicipantresponsered","correct"
"29","alone","77","alone","colorblue","test","num1","typenegative","singlestim","19","130369","100010","edm","paicipantresponseblue","correct","287"
"30","386","suicide","67","suicide","colorred","test","num1","typesuicide","singlestim","19","109656","100010","edc","paicipantresponsered","correct"
"31","551","funeral","77","funeral","colorblue","test","num1","typesuicide","singlestim","19","79165","100010","edm","paicipantresponseblue","correct"
"32","387","pleasure","67","pleasure","colorblue","test","num1","typepositive","singlestim","19","79289","100010","edc","paicipantresponsered","incorrect"
"33","405","suicide","77","suicide","colorblue","test","num1","typesuicide","singlestim","19","80065","100010","edm","paicipantresponseblue","correct"
"34","600","suicide","77","suicide","colorblue","test","num1","typesuicide","singlestim","19","74808","100010","edm","paicipantresponseblue","correct"
"35","567","happy","77","happy","colorblue","test","num1","typepositive","singlestim","19","85495","100010","edm","paicipantresponseblue","correct"
"36","959","paper","77","paper","colorblue","test","num1","typeneutral","singlestim","19","85913","100010","edm","paicipantresponseblue","correct"
"37","museum","67","museum","colorblue","test","num1","typeneutral","singlestim","19","98128","100010","edc","paicipantresponsered","incorrect","489"
"38","307","dead","67","dead","colorred","test","num1","typesuicide","singlestim","19","78477","100010","edc","paicipantresponsered","correct"
"39","865","stupid","67","stupid","colorred","test","num1","typenegative","singlestim","19","71429","100010","edc","paicipantresponsered","correct"
"40","success","67","success","colorblue","test","num1","typepositive","singlestim","19","95400","100010","edc","paicipantresponsered","incorrect","531"
"41","326","stupid","67","stupid","colorred","test","num1","typenegative","singlestim","19","78559","100010","edc","paicipantresponsered","correct"
"42","601","museum","67","museum","colorred","test","num1","typeneutral","singlestim","19","95017","100010","edc","paicipantresponsered","correct"
"43","774","alone","77","alone","colorblue","test","num1","typenegative","singlestim","19","73189","100010","edm","paicipantresponseblue","correct"
"44","997","paper","77","paper","colorblue","test","num1","typeneutral","singlestim","19","82636","100010","edm","paicipantresponseblue","correct"
"45","487","happy","67","happy","colorred","test","num1","typepositive","singlestim","19","114833","100010","edc","paicipantresponsered","correct"
"46","402","paper","67","paper","colorred","test","num1","typeneutral","singlestim","19","79596","100010","edc","paicipantresponsered","correct"
"47","587","alone","67","alone","colorred","test","num1","typenegative","singlestim","19","74912","100010","edc","paicipantresponsered","correct"
"48","464","funeral","77","funeral","colorblue","test","num1","typesuicide","singlestim","19","103076","100010","edm","paicipantresponseblue","correct"
"49","670","pleasure","77","pleasure","colorblue","test","num1","typepositive","singlestim","19","153488","100010","edm","paicipantresponseblue","correct"
"50","dead","67","dead","colorred","test","num1","typesuicide","singlestim","19","65173","100010","edc","paicipantresponsered","correct","579"
"51","1213","happy","67","happy","colorred","test","num1","typepositive","singlestim","19","107262","100010","edc","paicipantresponsered","correct"
"52","443","rejected","77","rejected","colorblue","test","num1","typenegative","singlestim","19","94898","100010","edm","paicipantresponseblue","correct"
"53","725","success","67","success","colorred","test","num1","typepositive","singlestim","19","83996","100010","edc","paicipantresponsered","correct"
"54","835","engine","67","engine","colorred","test","num1","typeneutral","singlestim","19","7821916","100010","edc","paicipantresponsered","correct"
"55","1795","success","77","success","colorblue","test","num1","typepositive","singlestim","19","113236","100010","edm","paicipantresponseblue","correct"
"56","927","happy","67","happy","colorred","test","num1","typepositive","singlestim","19","159997","100010","edc","paicipantresponsered","correct"
"57","439","museum","77","museum","colorblue","test","num1","typeneutral","singlestim","19","96748","100010","edm","paicipantresponseblue","correct"
"58","1094","engine","77","engine","colorblue","test","num1","typeneutral","singlestim","19","61221","100010","edm","paicipantresponseblue","correct"
"59","1182","rejected","77","rejected","colorblue","test","num1","typenegative","singlestim","19","109350","100010","edm","paicipantresponseblue","correct"
"60","384","dead","67","dead","colorred","test","num1","typesuicide","singlestim","19","667300","100010","edc","paicipantresponsered","correct"
"61","354","alone","77","alone","colorblue","test","num1","typenegative","singlestim","19","81137","100010","edm","paicipantresponseblue","correct"
"62","298","alone","77","alone","colorblue","test","num1","typenegative","singlestim","19","59692","100010","edm","paicipantresponseblue","correct"
"63","505","museum","67","museum","colorred","test","num1","typeneutral","singlestim","19","60436","100010","edc","paicipantresponsered","correct"
"64","434","museum","77","museum","colorblue","test","num1","typeneutral","singlestim","19","79725","100010","edm","paicipantresponseblue","correct"
"65","611","alone","67","alone","colorred","test","num1","typenegative","singlestim","19","102689","100010","edc","paicipantresponsered","correct"
"66","466","pleasure","77","pleasure","colorblue","test","num1","typepositive","singlestim","19","67042","100010","edm","paicipantresponseblue","correct"
"67","817","pleasure","67","pleasure","colorred","test","num1","typepositive","singlestim","19","77423","100010","edc","paicipantresponsered","correct"
"68","600","rejected","67","rejected","colorred","test","num1","typenegative","singlestim","19","82205","100010","edc","paicipantresponsered","correct"
"69","278","alone","77","alone","colorblue","test","num1","typenegative","singlestim","19","58502","100010","edm","paicipantresponseblue","correct"
"70","366","engine","67","engine","colorred","test","num1","typeneutral","singlestim","19","81007","100010","edc","paicipantresponsered","correct"
"71","1158","rejected","67","rejected","colorred","test","num1","typenegative","singlestim","19","73991","100010","edc","paicipantresponsered","correct"
"72","454","museum","77","museum","colorblue","test","num1","typeneutral","singlestim","19","102691","100010","edm","paicipantresponseblue","correct"
"73","771","success","67","success","colorred","test","num1","typepositive","singlestim","19","74855","100010","edc","paicipantresponsered","correct"
"74","450","success","67","success","colorred","test","num1","typepositive","singlestim","19","65319","100010","edc","paicipantresponsered","correct"
"75","928","paper","77","paper","colorblue","test","num1","typeneutral","singlestim","19","97255","100010","edm","paicipantresponseblue","correct"
"76","865","museum","67","museum","colorred","test","num1","typeneutral","singlestim","19","80608","100010","edc","paicipantresponsered","correct"
"77","1057","pleasure","77","pleasure","colorblue","test","num1","typepositive","singlestim","19","74647","100010","edm","paicipantresponseblue","correct"
"78","549","engine","67","engine","colorred","test","num1","typeneutral","singlestim","19","125208","100010","edc","paicipantresponsered","correct"
"79","680","funeral","67","funeral","colorred","test","num1","typesuicide","singlestim","19","105859","100010","edc","paicipantresponsered","correct"
"80","652","success","67","success","colorred","test","num1","typepositive","singlestim","19","77292","100010","edc","paicipantresponsered","correct"
"81","engine","67","engine","colorred","test","num1","typeneutral","singlestim","19","112385","100010","edc","paicipantresponsered","correct","516"
"82","659","pleasure","77","pleasure","colorblue","test","num1","typepositive","singlestim","19","62136","100010","edm","paicipantresponseblue","correct"
"83","439","rejected","77","rejected","colorblue","test","num1","typenegative","singlestim","19","113254","100010","edm","paicipantresponseblue","correct"
"84","387","pleasure","77","pleasure","colorblue","test","num1","typepositive","singlestim","19","83137","100010","edm","paicipantresponseblue","correct"
"85","paper","1","paper","colorred","test","num1","typeneutral","singlestim","19","90909","100010","ed","incorrect","776","suicide"
"86","390","happy","67","happy","colorred","test","num1","typepositive","singlestim","19","71882","100010","edc","paicipantresponsered","correct"
"87","485","suicide","77","suicide","colorblue","test","num1","typesuicide","singlestim","19","116461","100010","edm","paicipantresponseblue","correct"
"88","450","dead","67","dead","colorred","test","num1","typesuicide","singlestim","19","57975","100010","edc","paicipantresponsered","correct"
"89","376","suicide","67","suicide","colorred","test","num1","typesuicide","singlestim","19","67434","100010","edc","paicipantresponsered","correct"
"90","981","funeral","67","funeral","colorred","test","num1","typesuicide","singlestim","19","66809","100010","edc","paicipantresponsered","correct"
"91","461","funeral","77","funeral","colorblue","test","num1","typesuicide","singlestim","19","93596","100010","edm","paicipantresponseblue","correct"
"92","455","success","67","success","colorred","test","num1","typepositive","singlestim","19","75269","100010","edc","paicipantresponsered","correct"
"93","703","suicide","67","suicide","colorred","test","num1","typesuicide","singlestim","19","57445","100010","edc","paicipantresponsered","correct"
"94","414","funeral","67","funeral","colorred","test","num1","typesuicide","singlestim","19","81470","100010","edc","paicipantresponsered","correct"
"95","352","alone","77","alone","colorblue","test","num1","typenegative","singlestim","19","92035","100010","edm","paicipantresponseblue","correct"
"96","614","success","67","success","colorred","test","num1","typepositive","singlestim","19","85802","100010","edc","paicipantresponsered","correct"
"97","439","alone","67","alone","colorred","test","num1","typenegative","singlestim","19","273534","100010","edc","paicipantresponsered","correct"
"98","427","happy","67","happy","colorred","test","num1","typepositive","singlestim","19","154934","100010","edc","paicipantresponsered","correct"
"99","407","rejected","77","rejected","colorblue","test","num1","typenegative","singlestim","19","1058381","100010","edm","paicipantresponseblue","correct"
"100","414","happy","77","happy","colorblue","test","num1","typepositive","singlestim","19","76190","100010","edm","paicipantresponseblue","correct"
"101","815","museum","77","museum","colorblue","test","num1","typeneutral","singlestim","19","118602","100010","edm","paicipantresponseblue","correct"
"102","808","engine","77","engine","colorblue","test","num1","typeneutral","singlestim","19","135936","100010","edm","paicipantresponseblue","correct"
"103","335","engine","77","engine","colorblue","test","num1","typeneutral","singlestim","19","105492","100010","edm","paicipantresponseblue","correct"
"104","suicide","77","suicide","colorblue","test","num1","typesuicide","singlestim","19","82962","100010","edm","paicipantresponseblue","correct","519"
"105","501","success","67","success","colorred","test","num1","typepositive","singlestim","19","65133","100010","edc","paicipantresponsered","correct"
"106","1762","museum","67","museum","colorred","test","num1","typeneutral","singlestim","19","110861","100010","edc","paicipantresponsered","correct"
"107","401","success","77","success","colorblue","test","num1","typepositive","singlestim","19","87256","100010","edm","paicipantresponseblue","correct"
"108","581","engine","67","engine","colorred","test","num1","typeneutral","singlestim","19","62149","100010","edc","paicipantresponsered","correct"
"109","552","paper","77","paper","colorblue","test","num1","typeneutral","singlestim","19","119136","100010","edm","paicipantresponseblue","correct"
"110","779","stupid","77","stupid","colorblue","test","num1","typenegative","singlestim","19","86087","100010","edm","paicipantresponseblue","correct"
"111","488","success","77","success","colorblue","test","num1","typepositive","singlestim","19","106122","100010","edm","paicipantresponseblue","correct"
"112","315","dead","67","dead","colorred","test","num1","typesuicide","singlestim","19","130701","100010","edc","paicipantresponsered","correct"
"113","425","museum","77","museum","colorblue","test","num1","typeneutral","singlestim","19","102714","100010","edm","paicipantresponseblue","correct"
"114","912","alone","67","alone","colorred","test","num1","typenegative","singlestim","19","74884","100010","edc","paicipantresponsered","correct"
"115","1094","rejected","77","rejected","colorblue","test","num1","typenegative","singlestim","19","488065","100010","edm","paicipantresponseblue","correct"
"116","873","suicide","67","suicide","colorred","test","num1","typesuicide","singlestim","19","68757","100010","edc","paicipantresponsered","correct"
"117","1448","paper","67","paper","colorred","test","num1","typeneutral","singlestim","19","66848","100010","edc","paicipantresponsered","correct"
"118","1125","dead","67","dead","colorred","test","num1","typesuicide","singlestim","19","109344","100010","edc","paicipantresponsered","correct"
"119","suicide","77","suicide","colorblue","test","num1","typesuicide","singlestim","19","73878","100010","edm","paicipantresponseblue","correct","553"
"120","364","museum","77","museum","colorblue","test","num1","typeneutral","singlestim","19","101000","100010","edm","paicipantresponseblue","correct"
"121","942","funeral","77","funeral","colorblue","test","num1","typesuicide","singlestim","19","80195","100010","edm","paicipantresponseblue","correct"
"122","435","engine","67","engine","colorblue","test","num1","typeneutral","singlestim","19","296665","100010","edc","paicipantresponsered","incorrect"
"123","509","pleasure","77","pleasure","colorblue","test","num1","typepositive","singlestim","19","69403","100010","edm","paicipantresponseblue","correct"
"124","669","stupid","67","stupid","colorred","test","num1","typenegative","singlestim","19","78154","100010","edc","paicipantresponsered","correct"
"125","540","rejected","77","rejected","colorred","test","num1","typenegative","singlestim","19","116018","100010","edm","paicipantresponseblue","incorrect"
"126","1768","pleasure","67","pleasure","colorred","test","num1","typepositive","singlestim","19","64495","100010","edc","paicipantresponsered","correct"
"127","472","suicide","67","suicide","colorred","test","num1","typesuicide","singlestim","19","80281","100010","edc","paicipantresponsered","correct"
"128","1038","alone","77","alone","colorblue","test","num1","typenegative","singlestim","19","70793","100010","edm","paicipantresponseblue","correct"
"129","1042","happy","77","happy","colorblue","test","num1","typepositive","singlestim","19","81509","100010","edm","paicipantresponseblue","correct"
"130","325","museum","77","museum","colorblue","test","num1","typeneutral","singlestim","19","80459","100010","edm","paicipantresponseblue","correct"
"131","572","happy","77","happy","colorblue","test","num1","typepositive","singlestim","19","117688","100010","edm","paicipantresponseblue","correct"
"132","507","suicide","77","suicide","colorblue","test","num1","typesuicide","singlestim","19","75739","100010","edm","paicipantresponseblue","correct"
"133","290","stupid","67","stupid","colorred","test","num1","typenegative","singlestim","19","74108","100010","edc","paicipantresponsered","correct"
"134","450","alone","77","alone","colorblue","test","num1","typenegative","singlestim","19","112950","100010","edm","paicipantresponseblue","correct"
"135","456","dead","67","dead","colorred","test","num1","typesuicide","singlestim","19","121381","100010","edc","paicipantresponsered","correct"
"136","628","suicide","67","suicide","colorred","test","num1","typesuicide","singlestim","19","88663","100010","edc","paicipantresponsered","correct"
"137","531","alone","67","alone","colorred","test","num1","typenegative","singlestim","19","128563","100010","edc","paicipantresponsered","correct"
"138","453","rejected","77","rejected","colorblue","test","num1","typenegative","singlestim","19","91141","100010","edm","paicipantresponseblue","correct"
"139","510","paper","67","paper","colorred","test","num1","typeneutral","singlestim","19","118960","100010","edc","paicipantresponsered","correct"
"140","443","suicide","67","suicide","colorred","test","num1","typesuicide","singlestim","19","82657","100010","edc","paicipantresponsered","correct"
"141","939","paper","77","paper","colorblue","test","num1","typeneutral","singlestim","19","83375","100010","edm","paicipantresponseblue","correct"
"142","697","funeral","77","funeral","colorblue","test","num1","typesuicide","singlestim","19","62940","100010","edm","paicipantresponseblue","correct"
"143","67","success","colorred","test","num1","typepositive","singlestim","19","87642","100010","edc","paicipantresponsered","correct","486","paper"
"144","319","pleasure","67","pleasure","colorred","test","num1","typepositive","singlestim","19","58162","100010","edc","paicipantresponsered","correct"
"145","504","pleasure","67","pleasure","colorred","test","num1","typepositive","singlestim","19","83107","100010","edc","paicipantresponsered","correct"
"146","404","funeral","77","funeral","colorblue","test","num1","typesuicide","singlestim","19","454546","100010","edm","paicipantresponseblue","correct"
"147","suicide","67","suicide","colorblue","test","num1","typesuicide","singlestim","19","64377","100010","edc","paicipantresponsered","incorrect","980"
"148","412","alone","67","alone","colorred","test","num1","typenegative","singlestim","19","175684","100010","edc","paicipantresponsered","correct"
"149","singlestim","19","83165","100010","edc","paicipantresponsered","correct","1002","funeral","77","funeral","colorblue","test","num1","typesuicide"
"150","447","pleasure","77","pleasure","colorblue","test","num1","typepositive","singlestim","19","71551","100010","edm","paicipantresponseblue","correct"
"151","417","funeral","77","funeral","colorblue","test","num1","typesuicide","singlestim","19","82293","100010","edm","paicipantresponseblue","correct"
"152","519","museum","77","museum","colorblue","test","num1","typeneutral","singlestim","19","150941","100010","edm","paicipantresponseblue","correct"
"153","531","dead","77","dead","colorblue","test","num1","typesuicide","singlestim","19","93090","100010","edm","paicipantresponseblue","correct"
"154","920","funeral","67","funeral","colorred","test","num1","typesuicide","singlestim","19","89117","100010","edc","paicipantresponsered","correct"
"155","391","engine","77","engine","colorblue","test","num1","typeneutral","singlestim","19","82646","100010","edm","paicipantresponseblue","correct"
"156","478","rejected","67","rejected","colorred","test","num1","typenegative","singlestim","19","161541","100010","edc","paicipantresponsered","correct"
"157","446","alone","67","alone","colorred","test","num1","typenegative","singlestim","19","113905","100010","edc","paicipantresponsered","correct"
"158","3258","73","text","18","101470","101","630","radio","67","radio","colorred","practice","num0","typepractice","singlestim"
"159","alone","77","alone","colorblue","test","num1","typenegative","singlestim","19","93757","100010","edm","paicipantresponseblue","correct","380"
"160","633","alone","67","alone","colorred","test","num1","typenegative","singlestim","19","116080","100010","edc","paicipantresponsered","correct"
"161","67","funeral","colorred","test","num1","typesuicide","singlestim","19","80032","100010","edc","paicipantresponsered","correct","421","suicide"
"162","479","engine","77","engine","colorblue","test","num1","typeneutral","singlestim","19","103458","100010","edm","paicipantresponseblue","correct"
"163","947","dead","67","dead","colorred","test","num1","typesuicide","singlestim","19","222623","100010","edc","paicipantresponsered","correct"
"164","545","dead","77","dead","colorblue","test","num1","typesuicide","singlestim","19","73855","100010","edm","paicipantresponseblue","correct"
"165","engine","67","engine","colorred","test","num1","typeneutral","singlestim","19","66964","100010","edc","paicipantresponsered","correct","303"
"166","863","success","67","success","colorred","test","num1","typepositive","singlestim","19","101557","100010","edc","paicipantresponsered","correct"
"167","433","stupid","67","stupid","colorred","test","num1","typenegative","singlestim","19","75403","100010","edc","paicipantresponsered","correct"
"168","554","rejected","77","rejected","colorblue","test","num1","typenegative","singlestim","19","157076","100010","edm","paicipantresponseblue","correct"
"169","colorred","test","num1","typeneutral","singlestim","19","147496","100010","edc","paicipantresponsered","correct","621","success","67","success"
"170","1748","happy","77","happy","colorblue","test","num1","typepositive","singlestim","19","85956","100010","edm","paicipantresponseblue","correct"
"171","355","paper","67","paper","colorred","test","num1","typeneutral","singlestim","19","401871","100010","edc","paicipantresponsered","correct"
"172","514","museum","77","museum","colorblue","test","num1","typeneutral","singlestim","19","482447","100010","edm","paicipantresponseblue","correct"
"173","350","funeral","77","funeral","colorblue","test","num1","typesuicide","singlestim","19","108068","100010","edm","paicipantresponseblue","correct"
"174","1192","engine","67","engine","colorred","test","num1","typeneutral","singlestim","19","59708","100010","edc","paicipantresponsered","correct"
"175","467","alone","67","alone","colorred","test","num1","typenegative","singlestim","19","118339","100010","edc","paicipantresponsered","correct"
"176","1096","funeral","77","funeral","colorblue","test","num1","typesuicide","singlestim","19","84204","100010","edm","paicipantresponseblue","correct"
"177","364","happy","77","happy","colorblue","test","num1","typepositive","singlestim","19","100679","100010","edm","paicipantresponseblue","correct"
"178","534","pleasure","77","pleasure","colorblue","test","num1","typepositive","singlestim","19","100838","100010","edm","paicipantresponseblue","correct"
"179","289","happy","67","happy","colorred","test","num1","typepositive","singlestim","19","58796","100010","edc","paicipantresponsered","correct"
"180","633","happy","67","happy","colorred","test","num1","typepositive","singlestim","19","90018","100010","edc","paicipantresponsered","correct"
"181","827","paper","67","paper","colorred","test","num1","typeneutral","singlestim","19","71941","100010","edc","paicipantresponsered","correct"
"182","623","dead","67","dead","colorred","test","num1","typesuicide","singlestim","19","101512","100010","edc","paicipantresponsered","correct"
"183","345","stupid","67","stupid","colorred","test","num1","typenegative","singlestim","19","68661","100010","edc","paicipantresponsered","correct"
"184","603","paper","77","paper","colorblue","test","num1","typeneutral","singlestim","19","74904","100010","edm","paicipantresponseblue","correct"
"185","dead","67","dead","colorred","test","num1","typesuicide","singlestim","19","68989","100010","edc","paicipantresponsered","correct","666"
"186","477","pleasure","67","pleasure","colorred","test","num1","typepositive","singlestim","19","85966","100010","edc","paicipantresponsered","correct"
"187","426","suicide","77","suicide","colorblue","test","num1","typesuicide","singlestim","19","65107","100010","edm","paicipantresponseblue","correct"
"188","dead","77","dead","colorblue","test","num1","typesuicide","singlestim","19","103352","100010","edm","paicipantresponseblue","correct","834"
"189","479","rejected","77","rejected","colorblue","test","num1","typenegative","singlestim","19","83592","100010","edm","paicipantresponseblue","correct"
"190","366","pleasure","67","pleasure","colorred","test","num1","typepositive","singlestim","19","84737","100010","edc","paicipantresponsered","correct"
"191","660","paper","67","paper","colorred","test","num1","typeneutral","singlestim","19","108303","100010","edc","paicipantresponsered","correct"
"192","386","museum","77","museum","colorblue","test","num1","typeneutral","singlestim","19","81812","100010","edm","paicipantresponseblue","correct"
"193","617","stupid","67","stupid","colorred","test","num1","typenegative","singlestim","19","114853","100010","edc","paicipantresponsered","correct"
"194","578","stupid","77","stupid","colorblue","test","num1","typenegative","singlestim","19","91894","100010","edm","paicipantresponseblue","correct"
"195","671","pleasure","67","pleasure","colorred","test","num1","typepositive","singlestim","19","77311","100010","edc","paicipantresponsered","correct"
"196","625","funeral","77","funeral","colorblue","test","num1","typesuicide","singlestim","19","105629","100010","edm","paicipantresponseblue","correct"
"197","733","success","77","success","colorblue","test","num1","typepositive","singlestim","19","108554","100010","edm","paicipantresponseblue","correct"
"198","432","rejected","77","rejected","colorred","test","num1","typenegative","singlestim","19","92536","100010","edm","paicipantresponseblue","incorrect"
"199","436","alone","67","alone","colorred","test","num1","typenegative","singlestim","19","88298","100010","edc","paicipantresponsered","correct"
"200","449","engine","77","engine","colorblue","test","num1","typeneutral","singlestim","19","93335","100010","edm","paicipantresponseblue","correct"
"201","457","funeral","67","funeral","colorred","test","num1","typesuicide","singlestim","19","76481","100010","edc","paicipantresponsered","correct"
"202","652","suicide","77","suicide","colorblue","test","num1","typesuicide","singlestim","19","113948","100010","edm","paicipantresponseblue","correct"
"203","855","pleasure","77","pleasure","colorblue","test","num1","typepositive","singlestim","19","99312","100010","edm","paicipantresponseblue","correct"
"204","807","suicide","67","suicide","colorred","test","num1","typesuicide","singlestim","19","80811","100010","edc","paicipantresponsered","correct"
"205","356","stupid","77","stupid","colorblue","test","num1","typenegative","singlestim","19","74699","100010","edm","paicipantresponseblue","correct"
"206","765","stupid","77","stupid","colorblue","test","num1","typenegative","singlestim","19","115957","100010","edm","paicipantresponseblue","correct"
"207","642","funeral","77","funeral","colorblue","test","num1","typesuicide","singlestim","19","156040","100010","edm","paicipantresponseblue","correct"
"208","568","suicide","77","suicide","colorblue","test","num1","typesuicide","singlestim","19","113448","100010","edm","paicipantresponseblue","correct"
"209","1105","stupid","67","stupid","colorred","test","num1","typenegative","singlestim","19","89455","100010","edc","paicipantresponsered","correct"
"210","success","77","success","colorblue","test","num1","typepositive","singlestim","19","422560","100010","edm","paicipantresponseblue","correct","445"
"211","success","67","success","colorred","test","num1","typepositive","singlestim","19","92659","100010","edc","paicipantresponsered","correct","841"
"212","820","engine","67","engine","colorred","test","num1","typeneutral","singlestim","19","80855","100010","edc","paicipantresponsered","correct"
"213","rejected","67","rejected","colorred","test","num1","typenegative","singlestim","19","82898","100010","edc","paicipantresponsered","correct","492"
"214","2192","77","text","18","178270","101","458","table","77","table","colorblue","practice","num0","typepractice","singlestim"
"215","486","engine","67","engine","colorred","test","num1","typeneutral","singlestim","19","70807","100010","edc","paicipantresponsered","correct"
"216","330","success","67","success","colorred","test","num1","typepositive","singlestim","19","60153","100010","edc","paicipantresponsered","correct"
"217","550","suicide","77","suicide","colorblue","test","num1","typesuicide","singlestim","19","140222","100010","edm","paicipantresponseblue","correct"
"218","416","happy","77","happy","colorblue","test","num1","typepositive","singlestim","19","63119","100010","edm","paicipantresponseblue","correct"
"219","627","pleasure","77","pleasure","colorblue","test","num1","typepositive","singlestim","19","85575","100010","edm","paicipantresponseblue","correct"
"220","485","alone","77","alone","colorblue","test","num1","typenegative","singlestim","19","92959","100010","edm","paicipantresponseblue","correct"
"221","406","paper","77","paper","colorblue","test","num1","typeneutral","singlestim","19","198139","100010","edm","paicipantresponseblue","correct"
"222","637","engine","77","engine","colorblue","test","num1","typeneutral","singlestim","19","118415","100010","edm","paicipantresponseblue","correct"
"223","440","dead","67","dead","colorred","test","num1","typesuicide","singlestim","19","120112","100010","edc","paicipantresponsered","correct"
"224","420","suicide","67","suicide","colorred","test","num1","typesuicide","singlestim","19","125735","100010","edc","paicipantresponsered","correct"
"225","723","dead","67","dead","colorred","test","num1","typesuicide","singlestim","19","76035","100010","edc","paicipantresponsered","correct"
"226","560","funeral","77","funeral","colorblue","test","num1","typesuicide","singlestim","19","61174","100010","edm","paicipantresponseblue","correct"
"227","565","happy","67","happy","colorred","test","num1","typepositive","singlestim","19","64720","100010","edc","paicipantresponsered","correct"
"228","496","success","67","success","colorred","test","num1","typepositive","singlestim","19","82664","100010","edc","paicipantresponsered","correct"
"229","833","funeral","77","funeral","colorblue","test","num1","typesuicide","singlestim","19","106484","100010","edm","paicipantresponseblue","correct"
"230","564","happy","77","happy","colorblue","test","num1","typepositive","singlestim","19","88404","100010","edm","paicipantresponseblue","correct"
"231","536","engine","77","engine","colorblue","test","num1","typeneutral","singlestim","19","59229","100010","edm","paicipantresponseblue","correct"
"232","67","funeral","colorred","test","num1","typesuicide","singlestim","19","294216","100010","edc","paicipantresponsered","correct","857","museum"
"233","579","pleasure","77","pleasure","colorblue","test","num1","typepositive","singlestim","19","57961","100010","edm","paicipantresponseblue","correct"
"234","688","stupid","77","stupid","colorblue","test","num1","typenegative","singlestim","19","69446","100010","edm","paicipantresponseblue","correct"
"235","431","dead","77","dead","colorblue","test","num1","typesuicide","singlestim","19","146668","100010","edm","paicipantresponseblue","correct"
"236","531","rejected","77","rejected","colorblue","test","num1","typenegative","singlestim","19","96292","100010","edm","paicipantresponseblue","correct"
"237","983","paper","77","paper","colorblue","test","num1","typeneutral","singlestim","19","162659","100010","edm","paicipantresponseblue","correct"
"238","666","success","77","success","colorblue","test","num1","typepositive","singlestim","19","98546","100010","edm","paicipantresponseblue","correct"
"239","1009","dead","67","dead","colorred","test","num1","typesuicide","singlestim","19","78414","100010","edc","paicipantresponsered","correct"
"240","848","funeral","67","funeral","colorred","test","num1","typesuicide","singlestim","19","72646","100010","edc","paicipantresponsered","correct"
"241","test","num1","typepositive","singlestim","19","2740235","100010","edn","incorrect","359","stupid","67","stupid","colorred","test"
"242","453","pleasure","67","pleasure","colorred","test","num1","typepositive","singlestim","19","57555","100010","edc","paicipantresponsered","correct"
"243","770","alone","77","alone","colorblue","test","num1","typenegative","singlestim","19","95025","100010","edm","paicipantresponseblue","correct"
"244","1050","success","67","success","colorred","test","num1","typepositive","singlestim","19","6611310","100010","edc","paicipantresponsered","correct"
"245","442","suicide","67","suicide","colorred","test","num1","typesuicide","singlestim","19","94977","100010","edc","paicipantresponsered","correct"
"246","635","suicide","77","suicide","colorblue","test","num1","typesuicide","singlestim","19","81888","100010","edm","paicipantresponseblue","correct"
"247","singlestim","19","135181","100010","edc","paicipantresponsered","correct","543","pleasure","67","pleasure","colorred","test","num1","typepositive"
"248","633","paper","77","paper","colorblue","test","num1","typeneutral","singlestim","19","77507","100010","edm","paicipantresponseblue","correct"
"249","547","suicide","77","suicide","colorblue","test","num1","typesuicide","singlestim","19","86475","100010","edm","paicipantresponseblue","correct"
"250","museum","77","museum","colorblue","test","num1","typeneutral","singlestim","19","86414","100010","edm","paicipantresponseblue","correct","307"
"251","1122","rejected","67","rejected","colorred","test","num1","typenegative","singlestim","19","67319","100010","edc","paicipantresponsered","correct"
"252","489","pleasure","67","pleasure","colorred","test","num1","typepositive","singlestim","19","80951","100010","edc","paicipantresponsered","correct"
"253","483","stupid","77","stupid","colorblue","test","num1","typenegative","singlestim","19","88966","100010","edm","paicipantresponseblue","correct"
"254","426","success","67","success","colorred","test","num1","typepositive","singlestim","19","82265","100010","edc","paicipantresponsered","correct"
"255","828","stupid","77","stupid","colorblue","test","num1","typenegative","singlestim","19","142444","100010","edm","paicipantresponseblue","correct"
"256","506","stupid","77","stupid","colorblue","test","num1","typenegative","singlestim","19","72936","100010","edm","paicipantresponseblue","correct"
"257","432","pleasure","67","pleasure","colorred","test","num1","typepositive","singlestim","19","96041","100010","edc","paicipantresponsered","correct"
"258","502","museum","77","museum","colorblue","test","num1","typeneutral","singlestim","19","98816","100010","edm","paicipantresponseblue","correct"
"259","1061","paper","77","paper","colorblue","test","num1","typeneutral","singlestim","19","66553","100010","edm","paicipantresponseblue","correct"
"260","415","pleasure","77","pleasure","colorblue","test","num1","typepositive","singlestim","19","99350","100010","edm","paicipantresponseblue","correct"
"261","464","suicide","67","suicide","colorred","test","num1","typesuicide","singlestim","19","88821","100010","edc","paicipantresponsered","correct"
"262","501","museum","77","museum","colorblue","test","num1","typeneutral","singlestim","19","99116","100010","edm","paicipantresponseblue","correct"
"263","443","museum","67","museum","colorred","test","num1","typeneutral","singlestim","19","64820","100010","edc","paicipantresponsered","correct"
"264","617","success","67","success","colorred","test","num1","typepositive","singlestim","19","78215","100010","edc","paicipantresponsered","correct"
"265","317","paper","67","paper","colorred","test","num1","typeneutral","singlestim","19","62949","100010","edc","paicipantresponsered","correct"
"266","832","engine","77","engine","colorblue","test","num1","typeneutral","singlestim","19","70962","100010","edm","paicipantresponseblue","correct"
"267","596","paper","67","paper","colorred","test","num1","typeneutral","singlestim","19","68430","100010","edc","paicipantresponsered","correct"
"268","592","rejected","77","rejected","colorblue","test","num1","typenegative","singlestim","19","86598","100010","edm","paicipantresponseblue","correct"
"269","397","dead","77","dead","colorblue","test","num1","typesuicide","singlestim","19","123229","100010","edm","paicipantresponseblue","correct"
"270","517","success","67","success","colorred","test","num1","typepositive","singlestim","19","70288","100010","edc","paicipantresponsered","correct"
"271","pleasure","67","pleasure","colorred","test","num1","typepositive","singlestim","19","167778","100010","edc","paicipantresponsered","correct","935"
"272","1282","paper","67","paper","colorred","test","num1","typeneutral","singlestim","19","97632","100010","edc","paicipantresponsered","correct"
"273","422","museum","67","museum","colorred","test","num1","typeneutral","singlestim","19","87600","100010","edc","paicipantresponsered","correct"
"274","dead","67","dead","colorred","test","num1","typesuicide","singlestim","19","96521","100010","edc","paicipantresponsered","correct","1035"
"275","444","pleasure","77","pleasure","colorblue","test","num1","typepositive","singlestim","19","162252","100010","edm","paicipantresponseblue","correct"
"276","438","alone","77","alone","colorblue","test","num1","typenegative","singlestim","19","65382","100010","edm","paicipantresponseblue","correct"
"277","427","paper","77","paper","colorblue","test","num1","typeneutral","singlestim","19","148751","100010","edm","paicipantresponseblue","correct"
"278","paper","67","paper","colorred","test","num1","typeneutral","singlestim","19","110332","100010","edc","paicipantresponsered","correct","440"
"279","415","dead","77","dead","colorblue","test","num1","typesuicide","singlestim","19","80533","100010","edm","paicipantresponseblue","correct"
"280","alone","1","alone","colorred","test","num1","typenegative","singlestim","19","101409","100010","ed","incorrect","1","museum"
"281","543","alone","77","alone","colorblue","test","num1","typenegative","singlestim","19","125496","100010","edm","paicipantresponseblue","correct"
"282","396","success","77","success","colorblue","test","num1","typepositive","singlestim","19","261878","100010","edm","paicipantresponseblue","correct"
"283","426","pleasure","77","pleasure","colorblue","test","num1","typepositive","singlestim","19","135304","100010","edm","paicipantresponseblue","correct"
"284","77","rejected","colorblue","test","num1","typenegative","singlestim","19","69788","100010","edm","paicipantresponseblue","correct","583","engine"
"285","634","pleasure","77","pleasure","colorblue","test","num1","typepositive","singlestim","19","100956","100010","edm","paicipantresponseblue","correct"
"286","405","alone","77","alone","colorblue","test","num1","typenegative","singlestim","19","94928","100010","edm","paicipantresponseblue","correct"
"287","769","paper","77","paper","colorblue","test","num1","typeneutral","singlestim","19","111293","100010","edm","paicipantresponseblue","correct"
"288","476","engine","67","engine","colorred","test","num1","typeneutral","singlestim","19","88699","100010","edc","paicipantresponsered","correct"
"289","810","alone","67","alone","colorred","test","num1","typenegative","singlestim","19","115452","100010","edc","paicipantresponsered","correct"
"290","960","museum","67","museum","colorred","test","num1","typeneutral","singlestim","19","97676","100010","edc","paicipantresponsered","correct"
"291","749","happy","77","happy","colorblue","test","num1","typepositive","singlestim","19","157281","100010","edm","paicipantresponseblue","correct"
"292","958","pleasure","67","pleasure","colorred","test","num1","typepositive","singlestim","19","73651","100010","edc","paicipantresponsered","correct"
"293","1138","suicide","67","suicide","colorred","test","num1","typesuicide","singlestim","19","172679","100010","edc","paicipantresponsered","correct"
"294","423","pleasure","67","pleasure","colorred","test","num1","typepositive","singlestim","19","82922","100010","edc","paicipantresponsered","correct"
"295","561","pleasure","67","pleasure","colorred","test","num1","typepositive","singlestim","19","153573","100010","edc","paicipantresponsered","correct"
"296","407","engine","67","engine","colorred","test","num1","typeneutral","singlestim","19","84674","100010","edc","paicipantresponsered","correct"
"297","671","funeral","77","funeral","colorblue","test","num1","typesuicide","singlestim","21","125598","100030","edm","paicipantresponseblue","correct"
"298","423","funeral","67","funeral","colorred","test","num1","typesuicide","singlestim","21","81183","100030","edc","paicipantresponsered","correct"
"299","356","suicide","67","suicide","colorred","test","num1","typesuicide","singlestim","21","410414","100030","edc","paicipantresponsered","correct"
"300","738","stupid","77","stupid","colorblue","test","num1","typenegative","singlestim","21","94658","100030","edm","paicipantresponseblue","correct"
"301","571","success","77","success","colorblue","test","num1","typepositive","singlestim","21","76308","100030","edm","paicipantresponseblue","correct"
"302","393","stupid","77","stupid","colorblue","test","num1","typenegative","singlestim","21","156136","100030","edm","paicipantresponseblue","correct"
"303","413","rejected","77","rejected","colorblue","test","num1","typenegative","singlestim","21","84990","100030","edm","paicipantresponseblue","correct"
"304","287","happy","67","happy","colorred","test","num1","typepositive","singlestim","21","64101","100030","edc","paicipantresponsered","correct"
"305","465","success","67","success","colorred","test","num1","typepositive","singlestim","21","78745","100030","edc","paicipantresponsered","correct"
"306","alone","77","alone","colorblue","test","num1","typenegative","singlestim","21","100146","100030","edm","paicipantresponseblue","correct","779"
"307","651","paper","77","paper","colorblue","test","num1","typeneutral","singlestim","21","145696","100030","edm","paicipantresponseblue","correct"
"308","427","museum","77","museum","colorblue","test","num1","typeneutral","singlestim","21","103234","100030","edm","paicipantresponseblue","correct"
"309","364","dead","67","dead","colorred","test","num1","typesuicide","singlestim","21","104616","100030","edc","paicipantresponsered","correct"
"310","314","happy","77","happy","colorblue","test","num1","typepositive","singlestim","21","100989","100030","edm","paicipantresponseblue","correct"
"311","404","museum","77","museum","colorblue","test","num1","typeneutral","singlestim","21","71956","100030","edm","paicipantresponseblue","correct"
"312","617","engine","77","engine","colorblue","test","num1","typeneutral","singlestim","21","156825","100030","edm","paicipantresponseblue","correct"
"313","379","museum","67","museum","colorred","test","num1","typeneutral","singlestim","21","93335","100030","edc","paicipantresponsered","correct"
"314","383","alone","67","alone","colorred","test","num1","typenegative","singlestim","21","112940","100030","edc","paicipantresponsered","correct"
"315","500","stupid","77","stupid","colorblue","test","num1","typenegative","singlestim","21","78207","100030","edm","paicipantresponseblue","correct"
"316","674","funeral","67","funeral","colorred","test","num1","typesuicide","singlestim","21","72306","100030","edc","paicipantresponsered","correct"
"317","funeral","77","funeral","colorblue","test","num1","typesuicide","singlestim","21","104323","100030","edm","paicipantresponseblue","correct","298"
"318","460","suicide","67","suicide","colorred","test","num1","typesuicide","singlestim","21","37820","100030","edc","paicipantresponsered","correct"
"319","412","engine","67","engine","colorred","test","num1","typeneutral","singlestim","21","95705","100030","edc","paicipantresponsered","correct"
"320","412","success","67","success","colorred","test","num1","typepositive","singlestim","21","100082","100030","edc","paicipantresponsered","correct"
"321","stupid","67","stupid","colorred","test","num1","typenegative","singlestim","21","1197805","100030","edc","paicipantresponsered","correct","731"
"322","474","success","77","success","colorblue","test","num1","typepositive","singlestim","21","174822","100030","edm","paicipantresponseblue","correct"
"323","791","stupid","67","stupid","colorred","test","num1","typenegative","singlestim","21","65623","100030","edc","paicipantresponsered","correct"
"324","550","engine","67","engine","colorred","test","num1","typeneutral","singlestim","21","94366","100030","edc","paicipantresponsered","correct"
"325","engine","67","engine","colorred","test","num1","typeneutral","singlestim","21","135856","100030","edc","paicipantresponsered","correct","352"
"326","335","paper","67","paper","colorblue","test","num1","typeneutral","singlestim","21","115199","100030","edc","paicipantresponsered","incorrect"
"327","754","museum","67","museum","colorred","test","num1","typeneutral","singlestim","21","85130","100030","edc","paicipantresponsered","correct"
"328","407","paper","77","paper","colorblue","test","num1","typeneutral","singlestim","21","84902","100030","edm","paicipantresponseblue","correct"
"329","470","funeral","77","funeral","colorblue","test","num1","typesuicide","singlestim","21","85738","100030","edm","paicipantresponseblue","correct"
"330","478","pleasure","67","pleasure","colorred","test","num1","typepositive","singlestim","21","80496","100030","edc","paicipantresponsered","correct"
"331","497","stupid","67","stupid","colorred","test","num1","typenegative","singlestim","21","91205","100030","edc","paicipantresponsered","correct"
"332","662","stupid","77","stupid","colorblue","test","num1","typenegative","singlestim","21","91784","100030","edm","paicipantresponseblue","correct"
"333","engine","77","engine","colorblue","test","num1","typeneutral","singlestim","21","103832","100030","edm","paicipantresponseblue","correct","431"
"334","299","success","77","success","colorblue","test","num1","typepositive","singlestim","21","83980","100030","edm","paicipantresponseblue","correct"
"335","634","happy","67","happy","colorred","test","num1","typepositive","singlestim","21","77276","100030","edc","paicipantresponsered","correct"
"336","alone","77","alone","colorblue","test","num1","typenegative","singlestim","21","101145","100030","edm","paicipantresponseblue","correct","443"
"337","333","suicide","77","suicide","colorblue","test","num1","typesuicide","singlestim","21","84099","100030","edm","paicipantresponseblue","correct"
"338","569","dead","77","dead","colorblue","test","num1","typesuicide","singlestim","21","100797","100030","edm","paicipantresponseblue","correct"
"339","673","happy","77","happy","colorblue","test","num1","typepositive","singlestim","21","79069","100030","edm","paicipantresponseblue","correct"
"340","701","success","67","success","colorred","test","num1","typepositive","singlestim","21","88544","100030","edc","paicipantresponsered","correct"
"341","359","dead","77","dead","colorblue","test","num1","typesuicide","singlestim","21","120398","100030","edm","paicipantresponseblue","correct"
"342","489","success","67","success","colorred","test","num1","typepositive","singlestim","21","85293","100030","edc","paicipantresponsered","correct"
"343","420","rejected","67","rejected","colorred","test","num1","typenegative","singlestim","21","80538","100030","edc","paicipantresponsered","correct"
"344","431","happy","77","happy","colorblue","test","num1","typepositive","singlestim","21","108713","100030","edm","paicipantresponseblue","correct"
"345","466","suicide","67","suicide","colorred","test","num1","typesuicide","singlestim","21","159164","100030","edc","paicipantresponsered","correct"
"346","museum","67","museum","colorred","test","num1","typeneutral","singlestim","21","70961","100030","edc","paicipantresponsered","correct","595"
"347","1376","pleasure","67","pleasure","colorred","test","num1","typepositive","singlestim","21","113850","100030","edc","paicipantresponsered","correct"
"348","308","stupid","67","stupid","colorred","test","num1","typenegative","singlestim","21","100413","100030","edc","paicipantresponsered","correct"
"349","372","funeral","67","funeral","colorred","test","num1","typesuicide","singlestim","21","89570","100030","edc","paicipantresponsered","correct"
"350","507","paper","67","paper","colorred","test","num1","typeneutral","singlestim","21","7827634","100030","edc","paicipantresponsered","correct"
"351","778","rejected","77","rejected","colorblue","test","num1","typenegative","singlestim","21","119227","100030","edm","paicipantresponseblue","correct"
"352","714","engine","67","engine","colorred","test","num1","typeneutral","singlestim","21","165923","100030","edc","paicipantresponsered","correct"
"353","446","engine","67","engine","colorred","test","num1","typeneutral","singlestim","21","102404","100030","edc","paicipantresponsered","correct"
"354","692","museum","67","museum","colorred","test","num1","typeneutral","singlestim","21","67115","100030","edc","paicipantresponsered","correct"
"355","562","pleasure","67","pleasure","colorred","test","num1","typepositive","singlestim","21","115118","100030","edc","paicipantresponsered","correct"
"356","363","happy","67","happy","colorred","test","num1","typepositive","singlestim","21","672869","100030","edc","paicipantresponsered","correct"
"357","434","museum","77","museum","colorblue","test","num1","typeneutral","singlestim","21","86776","100030","edm","paicipantresponseblue","correct"
"358","350","success","67","success","colorred","test","num1","typepositive","singlestim","21","65247","100030","edc","paicipantresponsered","correct"
"359","421","pleasure","67","pleasure","colorred","test","num1","typepositive","singlestim","21","66059","100030","edc","paicipantresponsered","correct"
"360","676","alone","77","alone","colorblue","test","num1","typenegative","singlestim","21","85613","100030","edm","paicipantresponseblue","correct"
"361","351","paper","77","paper","colorblue","test","num1","typeneutral","singlestim","21","108250","100030","edm","paicipantresponseblue","correct"
"362","331","museum","67","museum","colorred","test","num1","typeneutral","singlestim","21","72578","100030","edc","paicipantresponsered","correct"
"363","620","happy","77","happy","colorblue","test","num1","typepositive","singlestim","21","83254","100030","edm","paicipantresponseblue","correct"
"364","462","funeral","67","funeral","colorred","test","num1","typesuicide","singlestim","21","87871","100030","edc","paicipantresponsered","correct"
"365","401","alone","67","alone","colorred","test","num1","typenegative","singlestim","21","64110","100030","edc","paicipantresponsered","correct"
"366","350","happy","77","happy","colorblue","test","num1","typepositive","singlestim","21","86570","100030","edm","paicipantresponseblue","correct"
"367","513","engine","77","engine","colorblue","test","num1","typeneutral","singlestim","21","79711","100030","edm","paicipantresponseblue","correct"
"368","384","suicide","77","suicide","colorblue","test","num1","typesuicide","singlestim","21","108284","100030","edm","paicipantresponseblue","correct"
"369","427","dead","67","dead","colorred","test","num1","typesuicide","singlestim","21","80487","100030","edc","paicipantresponsered","correct"
"370","507","funeral","67","funeral","colorred","test","num1","typesuicide","singlestim","21","71039","100030","edc","paicipantresponsered","correct"
"371","564","funeral","67","funeral","colorred","test","num1","typesuicide","singlestim","21","103026","100030","edc","paicipantresponsered","correct"
"372","612","success","77","success","colorblue","test","num1","typepositive","singlestim","21","86429","100030","edm","paicipantresponseblue","correct"
"373","326","happy","77","happy","colorblue","test","num1","typepositive","singlestim","21","80184","100030","edm","paicipantresponseblue","correct"
"374","392","paper","67","paper","colorred","test","num1","typeneutral","singlestim","21","130809","100030","edc","paicipantresponsered","correct"
"375","363","success","77","success","colorblue","test","num1","typepositive","singlestim","21","111427","100030","edm","paicipantresponseblue","correct"
"376","921","alone","77","alone","colorblue","test","num1","typenegative","singlestim","21","83424","100030","edm","paicipantresponseblue","correct"
"377","alone","67","alone","colorblue","test","num1","typenegative","singlestim","21","118108","100030","edc","paicipantresponsered","incorrect","490"
"378","369","alone","77","alone","colorblue","test","num1","typenegative","singlestim","21","67713","100030","edm","paicipantresponseblue","correct"
"379","502","museum","67","museum","colorred","test","num1","typeneutral","singlestim","21","118969","100030","edc","paicipantresponsered","correct"
"380","426","museum","67","museum","colorred","test","num1","typeneutral","singlestim","21","88768","100030","edc","paicipantresponsered","correct"
"381","67","suicide","colorred","test","num1","typesuicide","singlestim","21","96897","100030","edc","paicipantresponsered","correct","649","funeral"
"382","354","paper","67","paper","colorred","test","num1","typeneutral","singlestim","21","77448","100030","edc","paicipantresponsered","correct"
"383","402","happy","67","happy","colorred","test","num1","typepositive","singlestim","21","122066","100030","edc","paicipantresponsered","correct"
"384","453","suicide","67","suicide","colorred","test","num1","typesuicide","singlestim","21","63643","100030","edc","paicipantresponsered","correct"
"385","395","rejected","67","rejected","colorred","test","num1","typenegative","singlestim","21","73033","100030","edc","paicipantresponsered","correct"
"386","482","museum","77","museum","colorred","test","num1","typeneutral","singlestim","21","72502","100030","edm","paicipantresponseblue","incorrect"
"387","411","funeral","67","funeral","colorred","test","num1","typesuicide","singlestim","21","99210","100030","edc","paicipantresponsered","correct"
"388","489","happy","77","happy","colorblue","test","num1","typepositive","singlestim","21","80964","100030","edm","paicipantresponseblue","correct"
"389","545","happy","67","happy","colorred","test","num1","typepositive","singlestim","21","63202","100030","edc","paicipantresponsered","correct"
"390","315","dead","77","dead","colorblue","test","num1","typesuicide","singlestim","21","86991","100030","edm","paicipantresponseblue","correct"
"391","391","alone","67","alone","colorred","test","num1","typenegative","singlestim","21","97642","100030","edc","paicipantresponsered","correct"
"392","363","stupid","77","stupid","colorblue","test","num1","typenegative","singlestim","21","91371","100030","edm","paicipantresponseblue","correct"
"393","390","museum","67","museum","colorred","test","num1","typeneutral","singlestim","21","279137","100030","edc","paicipantresponsered","correct"
"394","255","success","77","success","colorblue","test","num1","typepositive","singlestim","21","160401","100030","edm","paicipantresponseblue","correct"
"395","330","alone","67","alone","colorred","test","num1","typenegative","singlestim","21","1063923","100030","edc","paicipantresponsered","correct"
"396","449","stupid","77","stupid","colorblue","test","num1","typenegative","singlestim","21","81845","100030","edm","paicipantresponseblue","correct"
"397","398","stupid","67","stupid","colorred","test","num1","typenegative","singlestim","21","124270","100030","edc","paicipantresponsered","correct"
"398","616","suicide","77","suicide","colorblue","test","num1","typesuicide","singlestim","21","141795","100030","edm","paicipantresponseblue","correct"
"399","315","success","77","success","colorblue","test","num1","typepositive","singlestim","21","111018","100030","edm","paicipantresponseblue","correct"
"400","pleasure","77","pleasure","colorblue","test","num1","typepositive","singlestim","21","88688","100030","edm","paicipantresponseblue","correct","538"
"401","437","dead","67","dead","colorred","test","num1","typesuicide","singlestim","21","70772","100030","edc","paicipantresponsered","correct"
"402","686","suicide","77","suicide","colorblue","test","num1","typesuicide","singlestim","21","116787","100030","edm","paicipantresponseblue","correct"
"403","560","paper","77","paper","colorblue","test","num1","typeneutral","singlestim","21","93028","100030","edm","paicipantresponseblue","correct"
"404","802","museum","67","museum","colorred","test","num1","typeneutral","singlestim","21","68164","100030","edc","paicipantresponsered","correct"
"405","488","suicide","77","suicide","colorblue","test","num1","typesuicide","singlestim","21","124869","100030","edm","paicipantresponseblue","correct"
"406","446","alone","67","alone","colorred","test","num1","typenegative","singlestim","21","91780","100030","edc","paicipantresponsered","correct"
"407","476","funeral","67","funeral","colorred","test","num1","typesuicide","singlestim","21","111803","100030","edc","paicipantresponsered","correct"
"408","347","suicide","67","suicide","colorred","test","num1","typesuicide","singlestim","21","136257","100030","edc","paicipantresponsered","correct"
"409","450","dead","77","dead","colorblue","test","num1","typesuicide","singlestim","21","108370","100030","edm","paicipantresponseblue","correct"
"410","688","engine","67","engine","colorred","test","num1","typeneutral","singlestim","21","80788","100030","edc","paicipantresponsered","correct"
"411","479","happy","67","happy","colorred","test","num1","typepositive","singlestim","21","493753","100030","edc","paicipantresponsered","correct"
"412","658","success","77","success","colorblue","test","num1","typepositive","singlestim","21","74622","100030","edm","paicipantresponseblue","correct"
"413","872","rejected","67","rejected","colorred","test","num1","typenegative","singlestim","21","72925","100030","edc","paicipantresponsered","correct"
"414","589","rejected","77","rejected","colorblue","test","num1","typenegative","singlestim","21","115135","100030","edm","paicipantresponseblue","correct"
"415","funeral","67","funeral","colorred","test","num1","typesuicide","singlestim","21","79647","100030","edc","paicipantresponsered","correct","477"
"416","368","happy","77","happy","colorblue","test","num1","typepositive","singlestim","21","106573","100030","edm","paicipantresponseblue","correct"
"417","534","alone","67","alone","colorred","test","num1","typenegative","singlestim","21","85941","100030","edc","paicipantresponsered","correct"
"418","613","success","67","success","colorred","test","num1","typepositive","singlestim","21","302490","100030","edc","paicipantresponsered","correct"
"419","350","museum","77","museum","colorblue","test","num1","typeneutral","singlestim","21","74967","100030","edm","paicipantresponseblue","correct"
"420","556","rejected","77","rejected","colorblue","test","num1","typenegative","singlestim","21","83919","100030","edm","paicipantresponseblue","correct"
"421","361","dead","77","dead","colorblue","test","num1","typesuicide","singlestim","21","121584","100030","edm","paicipantresponseblue","correct"
"422","899","happy","67","happy","colorred","test","num1","typepositive","singlestim","21","70605","100030","edc","paicipantresponsered","correct"
"423","499","dead","67","dead","colorred","test","num1","typesuicide","singlestim","21","85989","100030","edc","paicipantresponsered","correct"
"424","661","museum","77","museum","colorblue","test","num1","typeneutral","singlestim","21","76664","100030","edm","paicipantresponseblue","correct"
"425","468","dead","67","dead","colorred","test","num1","typesuicide","singlestim","21","87187","100030","edc","paicipantresponsered","correct"
"426","476","dead","67","dead","colorred","test","num1","typesuicide","singlestim","21","86139","100030","edc","paicipantresponsered","correct"
"427","559","paper","77","paper","colorblue","test","num1","typeneutral","singlestim","21","123452","100030","edm","paicipantresponseblue","correct"
"428","384","pleasure","67","pleasure","colorred","test","num1","typepositive","singlestim","21","81328","100030","edc","paicipantresponsered","correct"
"429","431","success","67","success","colorred","test","num1","typepositive","singlestim","21","79748","100030","edc","paicipantresponsered","correct"
"430","776","dead","67","dead","colorred","test","num1","typesuicide","singlestim","21","118939","100030","edc","paicipantresponsered","correct"
"431","387","dead","77","dead","colorblue","test","num1","typesuicide","singlestim","21","126975","100030","edm","paicipantresponseblue","correct"
"432","370","pleasure","67","pleasure","colorred","test","num1","typepositive","singlestim","21","94238","100030","edc","paicipantresponsered","correct"
"433","337","paper","77","paper","colorblue","test","num1","typeneutral","singlestim","21","134110","100030","edm","paicipantresponseblue","correct"
"434","310","pleasure","67","pleasure","colorred","test","num1","typepositive","singlestim","21","96657","100030","edc","paicipantresponsered","correct"
"435","483","suicide","67","suicide","colorred","test","num1","typesuicide","singlestim","21","124660","100030","edc","paicipantresponsered","correct"
"436","461","dead","67","dead","colorred","test","num1","typesuicide","singlestim","21","88329","100030","edc","paicipantresponsered","correct"
"437","516","engine","67","engine","colorred","test","num1","typeneutral","singlestim","21","89104","100030","edc","paicipantresponsered","correct"
"438","432","engine","67","engine","colorred","test","num1","typeneutral","singlestim","21","68580","100030","edc","paicipantresponsered","correct"
"439","67","paper","colorred","test","num1","typeneutral","singlestim","21","93338","100030","edc","paicipantresponsered","correct","399","suicide"
"440","585","funeral","67","funeral","colorred","test","num1","typesuicide","singlestim","21","63961","100030","edc","paicipantresponsered","correct"
"441","390","museum","77","museum","colorblue","test","num1","typeneutral","singlestim","21","88711","100030","edm","paicipantresponseblue","correct"
"442","491","paper","77","paper","colorblue","test","num1","typeneutral","singlestim","21","460253","100030","edm","paicipantresponseblue","correct"
"443","success","67","success","colorred","test","num1","typepositive","singlestim","21","70562","100030","edc","paicipantresponsered","correct","908"
"444","440","dead","67","dead","colorred","test","num1","typesuicide","singlestim","21","181330","100030","edc","paicipantresponsered","correct"
"445","singlestim","21","89373","100030","edm","paicipantresponseblue","correct","1043","success","67","success","colorred","test","num1","typepositive"
"446","513","stupid","77","stupid","colorblue","test","num1","typenegative","singlestim","21","77272","100030","edm","paicipantresponseblue","correct"
"447","382","pleasure","77","pleasure","colorblue","test","num1","typepositive","singlestim","21","87887","100030","edm","paicipantresponseblue","correct"
"448","492","alone","77","alone","colorblue","test","num1","typenegative","singlestim","21","156648","100030","edm","paicipantresponseblue","correct"
"449","428","pleasure","67","pleasure","colorred","test","num1","typepositive","singlestim","21","98724","100030","edc","paicipantresponsered","correct"
"450","594","happy","77","happy","colorblue","test","num1","typepositive","singlestim","21","94920","100030","edm","paicipantresponseblue","correct"
"451","399","paper","77","paper","colorblue","test","num1","typeneutral","singlestim","21","88250","100030","edm","paicipantresponseblue","correct"
"452","365","dead","77","dead","colorblue","test","num1","typesuicide","singlestim","21","167157","100030","edm","paicipantresponseblue","correct"
"453","478","pleasure","67","pleasure","colorred","test","num1","typepositive","singlestim","21","119600","100030","edc","paicipantresponsered","correct"
"454","20","107309","11111","edc","paicipantresponsered","correct","539","basket","77","basket","colorblue","practice","num0","typepractice","singlestim"
"455","funeral","67","funeral","colorred","test","num1","typesuicide","singlestim","21","99340","100030","edc","paicipantresponsered","correct","405"
"456","346","alone","77","alone","colorblue","test","num1","typenegative","singlestim","21","121638","100030","edm","paicipantresponseblue","correct"
"457","67","suicide","colorred","test","num1","typesuicide","singlestim","21","85658","100030","edc","paicipantresponsered","correct","383","paper"
"458","467","stupid","67","stupid","colorred","test","num1","typenegative","singlestim","21","109127","100030","edc","paicipantresponsered","correct"
"459","646","suicide","67","suicide","colorred","test","num1","typesuicide","singlestim","21","228478","100030","edc","paicipantresponsered","correct"
"460","489","suicide","77","suicide","colorblue","test","num1","typesuicide","singlestim","21","79548","100030","edm","paicipantresponseblue","correct"
"461","funeral","77","funeral","colorblue","test","num1","typesuicide","singlestim","21","72472","100030","edm","paicipantresponseblue","correct","433"
"462","535","rejected","77","rejected","colorblue","test","num1","typenegative","singlestim","21","107307","100030","edm","paicipantresponseblue","correct"
"463","467","rejected","67","rejected","colorred","test","num1","typenegative","singlestim","21","81083","100030","edc","paicipantresponsered","correct"
"464","321","happy","67","happy","colorred","test","num1","typepositive","singlestim","21","162603","100030","edc","paicipantresponsered","correct"
"465","colorred","test","num1","typepositive","singlestim","21","153323","100030","edc","paicipantresponsered","correct","372","dead","77","dead"
"466","506","suicide","67","suicide","colorred","test","num1","typesuicide","singlestim","21","91667","100030","edc","paicipantresponsered","correct"
"467","393","happy","77","happy","colorblue","test","num1","typepositive","singlestim","21","407478","100030","edm","paicipantresponseblue","correct"
"468","521","paper","67","paper","colorred","test","num1","typeneutral","singlestim","21","488170","100030","edc","paicipantresponsered","correct"
"469","326","alone","67","alone","colorred","test","num1","typenegative","singlestim","21","113596","100030","edc","paicipantresponsered","correct"
"470","391","alone","77","alone","colorblue","test","num1","typenegative","singlestim","21","65306","100030","edm","paicipantresponseblue","correct"
"471","448","success","77","success","colorblue","test","num1","typepositive","singlestim","21","123994","100030","edm","paicipantresponseblue","correct"
"472","715","success","67","success","colorred","test","num1","typepositive","singlestim","21","90129","100030","edc","paicipantresponsered","correct"
"473","452","success","77","success","colorblue","test","num1","typepositive","singlestim","21","106344","100030","edm","paicipantresponseblue","correct"
"474","492","paper","77","paper","colorblue","test","num1","typeneutral","singlestim","21","106534","100030","edm","paicipantresponseblue","correct"
"475","321","engine","77","engine","colorblue","test","num1","typeneutral","singlestim","21","64344","100030","edm","paicipantresponseblue","correct"
"476","476","rejected","67","rejected","colorred","test","num1","typenegative","singlestim","21","95703","100030","edc","paicipantresponsered","correct"
"477","477","stupid","67","stupid","colorred","test","num1","typenegative","singlestim","21","77629","100030","edc","paicipantresponsered","correct"
"478","359","engine","77","engine","colorblue","test","num1","typeneutral","singlestim","21","107079","100030","edm","paicipantresponseblue","correct"
"479","449","alone","77","alone","colorblue","test","num1","typenegative","singlestim","21","74318","100030","edm","paicipantresponseblue","correct"
"480","734","museum","67","museum","colorred","test","num1","typeneutral","singlestim","21","80842","100030","edc","paicipantresponsered","correct"
"481","alone","77","alone","colorblue","test","num1","typenegative","singlestim","21","74864","100030","edm","paicipantresponseblue","correct","966"
"482","409","rejected","77","rejected","colorblue","test","num1","typenegative","singlestim","21","91581","100030","edm","paicipantresponseblue","correct"
"483","327","pleasure","67","pleasure","colorred","test","num1","typepositive","singlestim","21","70640","100030","edc","paicipantresponsered","correct"
"484","alone","67","alone","colorred","test","num1","typenegative","singlestim","21","109391","100030","edc","paicipantresponsered","correct","594"
"485","372","alone","77","alone","colorblue","test","num1","typenegative","singlestim","21","89169","100030","edm","paicipantresponseblue","correct"
"486","425","funeral","77","funeral","colorblue","test","num1","typesuicide","singlestim","21","90376","100030","edm","paicipantresponseblue","correct"
"487","501","stupid","77","stupid","colorblue","test","num1","typenegative","singlestim","21","114018","100030","edm","paicipantresponseblue","correct"
"488","441","dead","77","dead","colorblue","test","num1","typesuicide","singlestim","21","87457","100030","edm","paicipantresponseblue","correct"
"489","441","pleasure","77","pleasure","colorblue","test","num1","typepositive","singlestim","21","120506","100030","edm","paicipantresponseblue","correct"
"490","560","paper","77","paper","colorblue","test","num1","typeneutral","singlestim","21","97660","100030","edm","paicipantresponseblue","correct"
"491","368","stupid","77","stupid","colorblue","test","num1","typenegative","singlestim","21","82895","100030","edm","paicipantresponseblue","correct"
"492","556","alone","67","alone","colorred","test","num1","typenegative","singlestim","21","111391","100030","edc","paicipantresponsered","correct"
"493","312","alone","67","alone","colorred","test","num1","typenegative","singlestim","21","114070","100030","edc","paicipantresponsered","correct"
"494","426","suicide","77","suicide","colorblue","test","num1","typesuicide","singlestim","21","98174","100030","edm","paicipantresponseblue","correct"
"495","613","rejected","67","rejected","colorred","test","num1","typenegative","singlestim","21","94122","100030","edc","paicipantresponsered","correct"
"496","537","museum","77","museum","colorblue","test","num1","typeneutral","singlestim","21","99079","100030","edm","paicipantresponseblue","correct"
"497","426","funeral","77","funeral","colorblue","test","num1","typesuicide","singlestim","21","82112","100030","edm","paicipantresponseblue","correct"
"498","856","funeral","67","funeral","colorred","test","num1","typesuicide","singlestim","21","120011","100030","edc","paicipantresponsered","correct"
"499","787","rejected","77","rejected","colorblue","test","num1","typenegative","singlestim","21","105302","100030","edm","paicipantresponseblue","correct"
"500","530","success","67","success","colorred","test","num1","typepositive","singlestim","21","86548","100030","edc","paicipantresponsered","correct"
"501","375","rejected","77","rejected","colorblue","test","num1","typenegative","singlestim","21","80281","100030","edm","paicipantresponseblue","correct"
"502","508","paper","67","paper","colorred","test","num1","typeneutral","singlestim","21","121671","100030","edc","paicipantresponsered","correct"
"503","431","dead","77","dead","colorblue","test","num1","typesuicide","singlestim","21","161676","100030","edm","paicipantresponseblue","correct"
"504","396","success","67","success","colorred","test","num1","typepositive","singlestim","21","119050","100030","edc","paicipantresponsered","correct"
"505","489","engine","67","engine","colorred","test","num1","typeneutral","singlestim","21","95147","100030","edc","paicipantresponsered","correct"
"506","paper","77","paper","colorblue","test","num1","typeneutral","singlestim","21","428209","100030","edm","paicipantresponseblue","correct","381"
"507","engine","67","engine","colorred","test","num1","typeneutral","singlestim","21","98705","100030","edc","paicipantresponsered","correct","905"
"508","442","pleasure","67","pleasure","colorred","test","num1","typepositive","singlestim","21","86511","100030","edc","paicipantresponsered","correct"
"509","pleasure","77","pleasure","colorblue","test","num1","typepositive","singlestim","21","88594","100030","edm","paicipantresponseblue","correct","598"
"510","20","183932","11111","edm","paicipantresponseblue","correct","320","desk","67","desk","colorred","practice","num0","typepractice","singlestim"
"511","317","rejected","77","rejected","colorblue","test","num1","typenegative","singlestim","21","76327","100030","edm","paicipantresponseblue","correct"
"512","384","engine","67","engine","colorred","test","num1","typeneutral","singlestim","21","65752","100030","edc","paicipantresponsered","correct"
"513","495","engine","67","engine","colorred","test","num1","typeneutral","singlestim","21","145949","100030","edc","paicipantresponsered","correct"
"514","416","stupid","77","stupid","colorblue","test","num1","typenegative","singlestim","21","68743","100030","edm","paicipantresponseblue","correct"
"515","468","success","77","success","colorblue","test","num1","typepositive","singlestim","21","91248","100030","edm","paicipantresponseblue","correct"
"516","520","museum","67","museum","colorred","test","num1","typeneutral","singlestim","21","98686","100030","edc","paicipantresponsered","correct"
"517","315","museum","67","museum","colorred","test","num1","typeneutral","singlestim","21","203661","100030","edc","paicipantresponsered","correct"
"518","519","stupid","67","stupid","colorred","test","num1","typenegative","singlestim","21","124146","100030","edc","paicipantresponsered","correct"
"519","517","suicide","67","suicide","colorred","test","num1","typesuicide","singlestim","21","125832","100030","edc","paicipantresponsered","correct"
"520","558","funeral","67","funeral","colorred","test","num1","typesuicide","singlestim","21","131505","100030","edc","paicipantresponsered","correct"
"521","484","alone","67","alone","colorred","test","num1","typenegative","singlestim","21","81733","100030","edc","paicipantresponsered","correct"
"522","563","happy","67","happy","colorred","test","num1","typepositive","singlestim","21","66947","100030","edc","paicipantresponsered","correct"
"523","604","stupid","67","stupid","colorred","test","num1","typenegative","singlestim","21","70534","100030","edc","paicipantresponsered","correct"
"524","422","museum","77","museum","colorblue","test","num1","typeneutral","singlestim","21","88292","100030","edm","paicipantresponseblue","correct"
"525","455","rejected","67","rejected","colorred","test","num1","typenegative","singlestim","21","112140","100030","edc","paicipantresponsered","correct"
"526","348","alone","77","alone","colorblue","test","num1","typenegative","singlestim","21","93966","100030","edm","paicipantresponseblue","correct"
"527","464","pleasure","67","pleasure","colorred","test","num1","typepositive","singlestim","21","64903","100030","edc","paicipantresponsered","correct"
"528","67","museum","colorred","test","num1","typeneutral","singlestim","21","300279","100030","edc","paicipantresponsered","correct","598","happy"
"529","355","suicide","67","suicide","colorred","test","num1","typesuicide","singlestim","21","63521","100030","edc","paicipantresponsered","correct"
"530","623","stupid","67","stupid","colorred","test","num1","typenegative","singlestim","21","75280","100030","edc","paicipantresponsered","correct"
"531","445","dead","67","dead","colorred","test","num1","typesuicide","singlestim","21","152331","100030","edc","paicipantresponsered","correct"
"532","406","dead","67","dead","colorred","test","num1","typesuicide","singlestim","21","101904","100030","edc","paicipantresponsered","correct"
"533","471","museum","67","museum","colorred","test","num1","typeneutral","singlestim","21","168365","100030","edc","paicipantresponsered","correct"
"534","582","funeral","77","funeral","colorblue","test","num1","typesuicide","singlestim","21","104341","100030","edm","paicipantresponseblue","correct"
"535","377","pleasure","77","pleasure","colorblue","test","num1","typepositive","singlestim","21","83998","100030","edm","paicipantresponseblue","correct"
"536","426","museum","77","museum","colorblue","test","num1","typeneutral","singlestim","21","78283","100030","edm","paicipantresponseblue","correct"
"537","num1","typenegative","singlestim","21","2745795","100030","edc","paicipantresponsered","correct","473","success","78","success","colorblue","test"
"538","392","engine","77","engine","colorblue","test","num1","typeneutral","singlestim","21","63162","100030","edm","paicipantresponseblue","correct"
"539","495","dead","77","dead","colorblue","test","num1","typesuicide","singlestim","21","100729","100030","edm","paicipantresponseblue","correct"
"540","600","stupid","67","stupid","colorred","test","num1","typenegative","singlestim","21","6617124","100030","edc","paicipantresponsered","correct"
"541","417","stupid","77","stupid","colorblue","test","num1","typenegative","singlestim","21","100599","100030","edm","paicipantresponseblue","correct"
"542","459","alone","67","alone","colorred","test","num1","typenegative","singlestim","21","87551","100030","edc","paicipantresponsered","correct"
"543","singlestim","21","140931","100030","edc","paicipantresponsered","correct","443","engine","77","engine","colorblue","test","num1","typeneutral"
"544","420","paper","67","paper","colorred","test","num1","typeneutral","singlestim","21","83137","100030","edc","paicipantresponsered","correct"
"545","452","happy","67","happy","colorred","test","num1","typepositive","singlestim","21","92135","100030","edc","paicipantresponsered","correct"
"546","rejected","67","rejected","colorred","test","num1","typenegative","singlestim","21","91930","100030","edc","paicipantresponsered","correct","345"
"547","662","pleasure","67","pleasure","colorred","test","num1","typepositive","singlestim","21","73188","100030","edc","paicipantresponsered","correct"
"548","423","funeral","77","funeral","colorblue","test","num1","typesuicide","singlestim","21","86584","100030","edm","paicipantresponseblue","correct"
"549","384","funeral","67","funeral","colorred","test","num1","typesuicide","singlestim","21","94561","100030","edc","paicipantresponsered","correct"
"550","345","suicide","77","suicide","colorblue","test","num1","typesuicide","singlestim","21","87820","100030","edm","paicipantresponseblue","correct"
"551","643","paper","67","paper","colorred","test","num1","typeneutral","singlestim","21","148292","100030","edc","paicipantresponsered","correct"
"552","358","pleasure","77","pleasure","colorblue","test","num1","typepositive","singlestim","21","78499","100030","edm","paicipantresponseblue","correct"
"553","427","pleasure","77","pleasure","colorblue","test","num1","typepositive","singlestim","21","101675","100030","edm","paicipantresponseblue","correct"
"554","413","engine","67","engine","colorred","test","num1","typeneutral","singlestim","21","104434","100030","edc","paicipantresponsered","correct"
"555","631","pleasure","77","pleasure","colorblue","test","num1","typepositive","singlestim","21","72385","100030","edm","paicipantresponseblue","correct"
"556","462","rejected","77","rejected","colorblue","test","num1","typenegative","singlestim","21","105019","100030","edm","paicipantresponseblue","correct"
"557","562","engine","67","engine","colorred","test","num1","typeneutral","singlestim","21","94592","100030","edc","paicipantresponsered","correct"
"558","349","funeral","67","funeral","colorred","test","num1","typesuicide","singlestim","21","104675","100030","edc","paicipantresponsered","correct"
"559","311","stupid","77","stupid","colorblue","test","num1","typenegative","singlestim","21","70341","100030","edm","paicipantresponseblue","correct"
"560","472","suicide","67","suicide","colorred","test","num1","typesuicide","singlestim","21","83893","100030","edc","paicipantresponsered","correct"
"561","472","funeral","67","funeral","colorred","test","num1","typesuicide","singlestim","21","68633","100030","edc","paicipantresponsered","correct"
"562","479","stupid","67","stupid","colorred","test","num1","typenegative","singlestim","21","76653","100030","edc","paicipantresponsered","correct"
"563","366","suicide","77","suicide","colorblue","test","num1","typesuicide","singlestim","21","74004","100030","edm","paicipantresponseblue","correct"
"564","484","paper","67","paper","colorred","test","num1","typeneutral","singlestim","21","92293","100030","edc","paicipantresponsered","correct"
"565","293","museum","67","museum","colorred","test","num1","typeneutral","singlestim","21","128733","100030","edc","paicipantresponsered","correct"
"566","428","funeral","77","funeral","colorblue","test","num1","typesuicide","singlestim","21","75931","100030","edm","paicipantresponseblue","correct"
"567","engine","77","engine","colorblue","test","num1","typeneutral","singlestim","21","173916","100030","edm","paicipantresponseblue","correct","1569"
"568","696","alone","67","alone","colorred","test","num1","typenegative","singlestim","21","103550","100030","edc","paicipantresponsered","correct"
"569","326","alone","67","alone","colorred","test","num1","typenegative","singlestim","21","93133","100030","edc","paicipantresponsered","correct"
"570","success","67","success","colorred","test","num1","typepositive","singlestim","21","102766","100030","edc","paicipantresponsered","correct","946"
"571","486","pleasure","67","pleasure","colorred","test","num1","typepositive","singlestim","21","167952","100030","edc","paicipantresponsered","correct"
"572","538","museum","67","museum","colorred","test","num1","typeneutral","singlestim","21","71129","100030","edc","paicipantresponsered","correct"
"573","515","suicide","77","suicide","colorblue","test","num1","typesuicide","singlestim","21","154471","100030","edm","paicipantresponseblue","correct"
"574","engine","67","engine","colorred","test","num1","typeneutral","singlestim","21","115988","100030","edc","paicipantresponsered","correct","416"
"575","487","stupid","77","stupid","colorblue","test","num1","typenegative","singlestim","21","86229","100030","edm","paicipantresponseblue","correct"
"576","1","museum","colorred","test","num1","typeneutral","singlestim","21","110859","100030","ed","incorrect","1","pleasure","1"
"577","301","paper","67","paper","colorred","test","num1","typeneutral","singlestim","21","131016","100030","edc","paicipantresponsered","correct"
"578","667","pleasure","67","pleasure","colorred","test","num1","typepositive","singlestim","21","267760","100030","edc","paicipantresponsered","correct"
"579","473","suicide","77","suicide","colorblue","test","num1","typesuicide","singlestim","21","140983","100030","edm","paicipantresponseblue","correct"
"580","67","engine","colorred","test","num1","typeneutral","singlestim","21","75583","100030","edc","paicipantresponsered","correct","693","happy"
"581","470","engine","77","engine","colorblue","test","num1","typeneutral","singlestim","21","106640","100030","edm","paicipantresponseblue","correct"
"582","433","museum","77","museum","colorblue","test","num1","typeneutral","singlestim","21","100579","100030","edm","paicipantresponseblue","correct"
"583","551","rejected","67","rejected","colorred","test","num1","typenegative","singlestim","21","117048","100030","edc","paicipantresponsered","correct"
"584","493","dead","67","dead","colorred","test","num1","typesuicide","singlestim","21","94401","100030","edc","paicipantresponsered","correct"
"585","793","dead","77","dead","colorblue","test","num1","typesuicide","singlestim","21","121459","100030","edm","paicipantresponseblue","correct"
"586","795","engine","77","engine","colorblue","test","num1","typeneutral","singlestim","21","103690","100030","edm","paicipantresponseblue","correct"
"587","535","dead","67","dead","colorred","test","num1","typesuicide","singlestim","21","163049","100030","edc","paicipantresponsered","correct"
"588","533","dead","67","dead","colorred","test","num1","typesuicide","singlestim","21","79392","100030","edc","paicipantresponsered","correct"
"589","332","suicide","77","suicide","colorblue","test","num1","typesuicide","singlestim","21","178223","100030","edm","paicipantresponseblue","correct"
"590","691","rejected","67","rejected","colorred","test","num1","typenegative","singlestim","21","88820","100030","edc","paicipantresponsered","correct"
"591","487","happy","67","happy","colorred","test","num1","typepositive","singlestim","21","159268","100030","edc","paicipantresponsered","correct"
"592","377","museum","77","museum","colorblue","test","num1","typeneutral","singlestim","21","90258","100030","edm","paicipantresponseblue","correct"
"593","433","suicide","67","suicide","colorred","test","num1","typesuicide","singlestim","23","131245","100050","edc","paicipantresponsered","correct"
"594","431","alone","77","alone","colorblue","test","num1","typenegative","singlestim","23","86827","100050","edm","paicipantresponseblue","correct"
"595","330","engine","77","engine","colorred","test","num1","typeneutral","singlestim","23","415952","100050","edm","paicipantresponseblue","incorrect"
"596","661","alone","77","alone","colorblue","test","num1","typenegative","singlestim","23","100525","100050","edm","paicipantresponseblue","correct"
"597","676","stupid","67","stupid","colorred","test","num1","typenegative","singlestim","23","82196","100050","edc","paicipantresponsered","correct"
"598","428","funeral","67","funeral","colorred","test","num1","typesuicide","singlestim","23","161779","100050","edc","paicipantresponsered","correct"
"599","503","success","77","success","colorblue","test","num1","typepositive","singlestim","23","90705","100050","edm","paicipantresponseblue","correct"
"600","334","funeral","77","funeral","colorblue","test","num1","typesuicide","singlestim","23","69644","100050","edm","paicipantresponseblue","correct"
"601","422","engine","77","engine","colorblue","test","num1","typeneutral","singlestim","23","84372","100050","edm","paicipantresponseblue","correct"
"602","alone","67","alone","colorred","test","num1","typenegative","singlestim","23","106136","100050","edc","paicipantresponsered","correct","872"
"603","573","suicide","77","suicide","colorblue","test","num1","typesuicide","singlestim","23","151475","100050","edm","paicipantresponseblue","correct"
"604","547","engine","77","engine","colorblue","test","num1","typeneutral","singlestim","23","108998","100050","edm","paicipantresponseblue","correct"
"605","344","engine","77","engine","colorblue","test","num1","typeneutral","singlestim","23","110184","100050","edm","paicipantresponseblue","correct"
"606","357","alone","67","alone","colorred","test","num1","typenegative","singlestim","23","106550","100050","edc","paicipantresponsered","correct"
"607","350","alone","67","alone","colorred","test","num1","typenegative","singlestim","23","77511","100050","edc","paicipantresponsered","correct"
"608","395","engine","67","engine","colorred","test","num1","typeneutral","singlestim","23","162429","100050","edc","paicipantresponsered","correct"
"609","364","dead","67","dead","colorred","test","num1","typesuicide","singlestim","23","98953","100050","edc","paicipantresponsered","correct"
"610","470","alone","77","alone","colorblue","test","num1","typenegative","singlestim","23","118616","100050","edm","paicipantresponseblue","correct"
"611","418","engine","77","engine","colorblue","test","num1","typeneutral","singlestim","23","83828","100050","edm","paicipantresponseblue","correct"
"612","1272","dead","77","dead","colorblue","test","num1","typesuicide","singlestim","23","78788","100050","edm","paicipantresponseblue","correct"
"613","alone","67","alone","colorred","test","num1","typenegative","singlestim","23","109829","100050","edc","paicipantresponsered","correct","322"
"614","457","paper","67","paper","colorred","test","num1","typeneutral","singlestim","23","43489","100050","edc","paicipantresponsered","correct"
"615","419","suicide","77","suicide","colorblue","test","num1","typesuicide","singlestim","23","101337","100050","edm","paicipantresponseblue","correct"
"616","405","museum","67","museum","colorred","test","num1","typeneutral","singlestim","23","105694","100050","edc","paicipantresponsered","correct"
"617","dead","67","dead","colorred","test","num1","typesuicide","singlestim","23","1203739","100050","edc","paicipantresponsered","correct","578"
"618","374","paper","67","paper","colorred","test","num1","typeneutral","singlestim","23","180407","100050","edc","paicipantresponsered","correct"
"619","569","paper","77","paper","colorblue","test","num1","typeneutral","singlestim","23","71406","100050","edm","paicipantresponseblue","correct"
"620","713","museum","77","museum","colorblue","test","num1","typeneutral","singlestim","23","100295","100050","edm","paicipantresponseblue","correct"
"621","funeral","77","funeral","colorblue","test","num1","typesuicide","singlestim","23","141410","100050","edm","paicipantresponseblue","correct","294"
"622","375","stupid","77","stupid","colorblue","test","num1","typenegative","singlestim","23","120781","100050","edm","paicipantresponseblue","correct"
"623","1018","dead","77","dead","colorblue","test","num1","typesuicide","singlestim","23","91417","100050","edm","paicipantresponseblue","correct"
"624","393","stupid","77","stupid","colorblue","test","num1","typenegative","singlestim","23","90499","100050","edm","paicipantresponseblue","correct"
"625","460","rejected","77","rejected","colorblue","test","num1","typenegative","singlestim","23","91402","100050","edm","paicipantresponseblue","correct"
"626","407","suicide","67","suicide","colorred","test","num1","typesuicide","singlestim","23","86112","100050","edc","paicipantresponsered","correct"
"627","558","dead","67","dead","colorred","test","num1","typesuicide","singlestim","23","96972","100050","edc","paicipantresponsered","correct"
"628","634","museum","77","museum","colorblue","test","num1","typeneutral","singlestim","23","97633","100050","edm","paicipantresponseblue","correct"
"629","suicide","77","suicide","colorblue","test","num1","typesuicide","singlestim","23","109470","100050","edm","paicipantresponseblue","correct","381"
"630","321","alone","77","alone","colorblue","test","num1","typenegative","singlestim","23","89505","100050","edm","paicipantresponseblue","correct"
"631","575","success","77","success","colorblue","test","num1","typepositive","singlestim","23","83062","100050","edm","paicipantresponseblue","correct"
"632","museum","77","museum","colorblue","test","num1","typeneutral","singlestim","23","106796","100050","edm","paicipantresponseblue","correct","510"
"633","333","success","77","success","colorblue","test","num1","typepositive","singlestim","23","89638","100050","edm","paicipantresponseblue","correct"
"634","480","museum","77","museum","colorblue","test","num1","typeneutral","singlestim","23","106489","100050","edm","paicipantresponseblue","correct"
"635","396","funeral","67","funeral","colorred","test","num1","typesuicide","singlestim","23","84669","100050","edc","paicipantresponsered","correct"
"636","695","rejected","77","rejected","colorblue","test","num1","typenegative","singlestim","23","94449","100050","edm","paicipantresponseblue","correct"
"637","309","funeral","67","funeral","colorred","test","num1","typesuicide","singlestim","23","125914","100050","edc","paicipantresponsered","correct"
"638","425","happy","77","happy","colorblue","test","num1","typepositive","singlestim","23","90925","100050","edm","paicipantresponseblue","correct"
"639","504","suicide","67","suicide","colorred","test","num1","typesuicide","singlestim","23","86246","100050","edc","paicipantresponsered","correct"
"640","415","stupid","77","stupid","colorblue","test","num1","typenegative","singlestim","23","114332","100050","edm","paicipantresponseblue","correct"
"641","383","museum","77","museum","colorblue","test","num1","typeneutral","singlestim","23","164757","100050","edm","paicipantresponseblue","correct"
"642","pleasure","77","pleasure","colorblue","test","num1","typepositive","singlestim","23","76771","100050","edm","paicipantresponseblue","correct","462"
"643","973","rejected","77","rejected","colorblue","test","num1","typenegative","singlestim","23","120034","100050","edm","paicipantresponseblue","correct"
"644","323","engine","77","engine","colorblue","test","num1","typeneutral","singlestim","23","105943","100050","edm","paicipantresponseblue","correct"
"645","477","alone","77","alone","colorred","test","num1","typenegative","singlestim","23","95252","100050","edm","paicipantresponseblue","incorrect"
"646","629","museum","77","museum","colorblue","test","num1","typeneutral","singlestim","23","7833476","100050","edm","paicipantresponseblue","correct"
"647","424","stupid","67","stupid","colorred","test","num1","typenegative","singlestim","23","124863","100050","edc","paicipantresponsered","correct"
"648","1028","rejected","67","rejected","colorred","test","num1","typenegative","singlestim","23","172165","100050","edc","paicipantresponsered","correct"
"649","420","pleasure","67","pleasure","colorred","test","num1","typepositive","singlestim","23","108035","100050","edc","paicipantresponsered","correct"
"650","501","dead","77","dead","colorblue","test","num1","typesuicide","singlestim","23","72820","100050","edm","paicipantresponseblue","correct"
"651","998","stupid","67","stupid","colorred","test","num1","typenegative","singlestim","23","121318","100050","edc","paicipantresponsered","correct"
"652","365","suicide","67","suicide","colorred","test","num1","typesuicide","singlestim","23","678441","100050","edc","paicipantresponsered","correct"
"653","469","paper","77","paper","colorblue","test","num1","typeneutral","singlestim","23","92452","100050","edm","paicipantresponseblue","correct"
"654","331","funeral","77","funeral","colorblue","test","num1","typesuicide","singlestim","23","70786","100050","edm","paicipantresponseblue","correct"
"655","424","paper","67","paper","colorred","test","num1","typeneutral","singlestim","23","71688","100050","edc","paicipantresponsered","correct"
"656","530","suicide","67","suicide","colorred","test","num1","typesuicide","singlestim","23","91353","100050","edc","paicipantresponsered","correct"
"657","497","suicide","77","suicide","colorblue","test","num1","typesuicide","singlestim","23","113955","100050","edm","paicipantresponseblue","correct"
"658","384","engine","67","engine","colorred","test","num1","typeneutral","singlestim","23","78168","100050","edc","paicipantresponsered","correct"
"659","682","alone","67","alone","colorred","test","num1","typenegative","singlestim","23","89151","100050","edc","paicipantresponsered","correct"
"660","517","dead","67","dead","colorred","test","num1","typesuicide","singlestim","23","93594","100050","edc","paicipantresponsered","correct"
"661","364","museum","77","museum","colorblue","test","num1","typeneutral","singlestim","23","69682","100050","edm","paicipantresponseblue","correct"
