"","colour_subject","rt","stimulus","keypress","word","color","block","blocknum","wordtype","trialtype","trialindex","timeelapsed","internalnodeid","keypressed","participantresponse","correctresponse"
"1","Subject1","981","rejected","77","rejected","colorblue","test","num1","typenegative","singlestim","19","119716","100010","edm","paicipantresponseblue","correct"
"2","Subject2","382","museum","77","museum","colorblue","test","num1","typeneutral","singlestim","19","75547","100010","edm","paicipantresponseblue","correct"
"3","Subject3","358","alone","67","alone","colorblue","test","num1","typenegative","singlestim","19","404851","100010","edc","paicipantresponsered","incorrect"
"4","Subject4","1421","pleasure","77","pleasure","colorblue","test","num1","typepositive","singlestim","19","88716","100010","edm","paicipantresponseblue","correct"
"5","Subject5","788","suicide","77","suicide","colorblue","test","num1","typesuicide","singlestim","19","70525","100010","edm","paicipantresponseblue","correct"
"6","Subject6","703","paper","67","paper","colorblue","test","num1","typeneutral","singlestim","19","150534","100010","edc","paicipantresponsered","incorrect"
"7","Subject7","568","museum","77","museum","colorblue","test","num1","typeneutral","singlestim","19","79368","100010","edm","paicipantresponseblue","correct"
"8","Subject8","467","suicide","77","suicide","colorblue","test","num1","typesuicide","singlestim","19","58605","100010","edm","paicipantresponseblue","correct"
"9","Subject9","579","pleasure","77","pleasure","colorblue","test","num1","typepositive","singlestim","19","73073","100010","edm","paicipantresponseblue","correct"
"10","Subject10","1","dead","1","dead","colorblue","test","num1","typesuicide","singlestim","19","94172","100010","ed","incorrect","762"
"11","Subject11","581","success","67","success","colorred","test","num1","typepositive","singlestim","19","139843","100010","edc","paicipantresponsered","correct"
"12","Subject13","514","pleasure","77","pleasure","colorred","test","num1","typepositive","singlestim","19","97595","100010","edm","paicipantresponseblue","incorrect"
"13","Subject14","540","happy","77","happy","colorblue","test","num1","typepositive","singlestim","19","99024","100010","edm","paicipantresponseblue","correct"
"14","Subject15","420","funeral","67","funeral","colorred","test","num1","typesuicide","singlestim","19","95469","100010","edc","paicipantresponsered","correct"
"15","Subject16","396","paper","77","paper","colorblue","test","num1","typeneutral","singlestim","19","66347","100010","edm","paicipantresponseblue","correct"
"16","Subject17","705","museum","77","museum","colorblue","test","num1","typeneutral","singlestim","19","151002","100010","edm","paicipantresponseblue","correct"
"17","Subject18","460","pleasure","67","pleasure","colorred","test","num1","typepositive","singlestim","19","87685","100010","edc","paicipantresponsered","correct"
"18","Subject19","813","pleasure","67","pleasure","colorred","test","num1","typepositive","singlestim","19","107351","100010","edc","paicipantresponsered","correct"
"19","Subject20","1794","happy","67","happy","colorred","test","num1","typepositive","singlestim","19","72503","100010","edc","paicipantresponsered","correct"
"20","Subject21","1015","museum","67","museum","colorred","test","num1","typeneutral","singlestim","19","66422","100010","edc","paicipantresponsered","correct"
"21","Subject22","paper","77","paper","colorblue","test","num1","typeneutral","singlestim","19","98819","100010","edm","paicipantresponseblue","correct","300"
"22","Subject23","567","rejected","77","rejected","colorblue","test","num1","typenegative","singlestim","19","32155","100010","edm","paicipantresponseblue","correct"
"23","Subject24","658","funeral","77","funeral","colorblue","test","num1","typesuicide","singlestim","19","90081","100010","edm","paicipantresponseblue","correct"
"24","Subject25","430","success","77","success","colorblue","test","num1","typepositive","singlestim","19","94464","100010","edm","paicipantresponseblue","correct"
"25","Subject26","success","77","success","colorblue","test","num1","typepositive","singlestim","19","1192017","100010","edm","paicipantresponseblue","correct","583"
"26","Subject27","514","happy","77","happy","colorblue","test","num1","typepositive","singlestim","19","169142","100010","edm","paicipantresponseblue","correct"
"27","Subject28","769","rejected","67","rejected","colorred","test","num1","typenegative","singlestim","19","59618","100010","edc","paicipantresponsered","correct"
"28","Subject29","488","funeral","67","funeral","colorred","test","num1","typesuicide","singlestim","19","88604","100010","edc","paicipantresponsered","correct"
"29","Subject30","alone","77","alone","colorblue","test","num1","typenegative","singlestim","19","130369","100010","edm","paicipantresponseblue","correct","287"
"30","Subject31","386","suicide","67","suicide","colorred","test","num1","typesuicide","singlestim","19","109656","100010","edc","paicipantresponsered","correct"
"31","Subject32","551","funeral","77","funeral","colorblue","test","num1","typesuicide","singlestim","19","79165","100010","edm","paicipantresponseblue","correct"
"32","Subject33","387","pleasure","67","pleasure","colorblue","test","num1","typepositive","singlestim","19","79289","100010","edc","paicipantresponsered","incorrect"
"33","Subject34","405","suicide","77","suicide","colorblue","test","num1","typesuicide","singlestim","19","80065","100010","edm","paicipantresponseblue","correct"
"34","Subject35","600","suicide","77","suicide","colorblue","test","num1","typesuicide","singlestim","19","74808","100010","edm","paicipantresponseblue","correct"
"35","Subject36","567","happy","77","happy","colorblue","test","num1","typepositive","singlestim","19","85495","100010","edm","paicipantresponseblue","correct"
"36","Subject37","959","paper","77","paper","colorblue","test","num1","typeneutral","singlestim","19","85913","100010","edm","paicipantresponseblue","correct"
"37","Subject38","museum","67","museum","colorblue","test","num1","typeneutral","singlestim","19","98128","100010","edc","paicipantresponsered","incorrect","489"
"38","Subject39","307","dead","67","dead","colorred","test","num1","typesuicide","singlestim","19","78477","100010","edc","paicipantresponsered","correct"
"39","Subject40","865","stupid","67","stupid","colorred","test","num1","typenegative","singlestim","19","71429","100010","edc","paicipantresponsered","correct"
"40","Subject41","success","67","success","colorblue","test","num1","typepositive","singlestim","19","95400","100010","edc","paicipantresponsered","incorrect","531"
"41","Subject42","326","stupid","67","stupid","colorred","test","num1","typenegative","singlestim","19","78559","100010","edc","paicipantresponsered","correct"
"42","Subject43","601","museum","67","museum","colorred","test","num1","typeneutral","singlestim","19","95017","100010","edc","paicipantresponsered","correct"
"43","Subject44","774","alone","77","alone","colorblue","test","num1","typenegative","singlestim","19","73189","100010","edm","paicipantresponseblue","correct"
"44","Subject45","997","paper","77","paper","colorblue","test","num1","typeneutral","singlestim","19","82636","100010","edm","paicipantresponseblue","correct"
"45","Subject46","487","happy","67","happy","colorred","test","num1","typepositive","singlestim","19","114833","100010","edc","paicipantresponsered","correct"
"46","Subject47","402","paper","67","paper","colorred","test","num1","typeneutral","singlestim","19","79596","100010","edc","paicipantresponsered","correct"
"47","Subject48","587","alone","67","alone","colorred","test","num1","typenegative","singlestim","19","74912","100010","edc","paicipantresponsered","correct"
"48","Subject49","464","funeral","77","funeral","colorblue","test","num1","typesuicide","singlestim","19","103076","100010","edm","paicipantresponseblue","correct"
"49","Subject50","670","pleasure","77","pleasure","colorblue","test","num1","typepositive","singlestim","19","153488","100010","edm","paicipantresponseblue","correct"
"50","Subject51","dead","67","dead","colorred","test","num1","typesuicide","singlestim","19","65173","100010","edc","paicipantresponsered","correct","579"
"51","Subject52","1213","happy","67","happy","colorred","test","num1","typepositive","singlestim","19","107262","100010","edc","paicipantresponsered","correct"
"52","Subject55","443","rejected","77","rejected","colorblue","test","num1","typenegative","singlestim","19","94898","100010","edm","paicipantresponseblue","correct"
"53","Subject56","725","success","67","success","colorred","test","num1","typepositive","singlestim","19","83996","100010","edc","paicipantresponsered","correct"
"54","Subject57","835","engine","67","engine","colorred","test","num1","typeneutral","singlestim","19","7821916","100010","edc","paicipantresponsered","correct"
"55","Subject58","1795","success","77","success","colorblue","test","num1","typepositive","singlestim","19","113236","100010","edm","paicipantresponseblue","correct"
"56","Subject59","927","happy","67","happy","colorred","test","num1","typepositive","singlestim","19","159997","100010","edc","paicipantresponsered","correct"
"57","Subject60","439","museum","77","museum","colorblue","test","num1","typeneutral","singlestim","19","96748","100010","edm","paicipantresponseblue","correct"
"58","Subject61","1094","engine","77","engine","colorblue","test","num1","typeneutral","singlestim","19","61221","100010","edm","paicipantresponseblue","correct"
"59","Subject62","1182","rejected","77","rejected","colorblue","test","num1","typenegative","singlestim","19","109350","100010","edm","paicipantresponseblue","correct"
"60","Subject63","384","dead","67","dead","colorred","test","num1","typesuicide","singlestim","19","667300","100010","edc","paicipantresponsered","correct"
"61","Subject64","354","alone","77","alone","colorblue","test","num1","typenegative","singlestim","19","81137","100010","edm","paicipantresponseblue","correct"
"62","Subject65","298","alone","77","alone","colorblue","test","num1","typenegative","singlestim","19","59692","100010","edm","paicipantresponseblue","correct"
"63","Subject66","505","museum","67","museum","colorred","test","num1","typeneutral","singlestim","19","60436","100010","edc","paicipantresponsered","correct"
"64","Subject67","434","museum","77","museum","colorblue","test","num1","typeneutral","singlestim","19","79725","100010","edm","paicipantresponseblue","correct"
"65","Subject68","611","alone","67","alone","colorred","test","num1","typenegative","singlestim","19","102689","100010","edc","paicipantresponsered","correct"
"66","Subject69","466","pleasure","77","pleasure","colorblue","test","num1","typepositive","singlestim","19","67042","100010","edm","paicipantresponseblue","correct"
"67","Subject70","817","pleasure","67","pleasure","colorred","test","num1","typepositive","singlestim","19","77423","100010","edc","paicipantresponsered","correct"
"68","Subject71","600","rejected","67","rejected","colorred","test","num1","typenegative","singlestim","19","82205","100010","edc","paicipantresponsered","correct"
"69","Subject72","278","alone","77","alone","colorblue","test","num1","typenegative","singlestim","19","58502","100010","edm","paicipantresponseblue","correct"
"70","Subject73","366","engine","67","engine","colorred","test","num1","typeneutral","singlestim","19","81007","100010","edc","paicipantresponsered","correct"
"71","Subject74","1158","rejected","67","rejected","colorred","test","num1","typenegative","singlestim","19","73991","100010","edc","paicipantresponsered","correct"
"72","Subject75","454","museum","77","museum","colorblue","test","num1","typeneutral","singlestim","19","102691","100010","edm","paicipantresponseblue","correct"
"73","Subject76","771","success","67","success","colorred","test","num1","typepositive","singlestim","19","74855","100010","edc","paicipantresponsered","correct"
"74","Subject78","450","success","67","success","colorred","test","num1","typepositive","singlestim","19","65319","100010","edc","paicipantresponsered","correct"
"75","Subject79","928","paper","77","paper","colorblue","test","num1","typeneutral","singlestim","19","97255","100010","edm","paicipantresponseblue","correct"
"76","Subject80","865","museum","67","museum","colorred","test","num1","typeneutral","singlestim","19","80608","100010","edc","paicipantresponsered","correct"
"77","Subject82","1057","pleasure","77","pleasure","colorblue","test","num1","typepositive","singlestim","19","74647","100010","edm","paicipantresponseblue","correct"
"78","Subject83","549","engine","67","engine","colorred","test","num1","typeneutral","singlestim","19","125208","100010","edc","paicipantresponsered","correct"
"79","Subject84","680","funeral","67","funeral","colorred","test","num1","typesuicide","singlestim","19","105859","100010","edc","paicipantresponsered","correct"
"80","Subject85","652","success","67","success","colorred","test","num1","typepositive","singlestim","19","77292","100010","edc","paicipantresponsered","correct"
"81","Subject86","engine","67","engine","colorred","test","num1","typeneutral","singlestim","19","112385","100010","edc","paicipantresponsered","correct","516"
"82","Subject87","659","pleasure","77","pleasure","colorblue","test","num1","typepositive","singlestim","19","62136","100010","edm","paicipantresponseblue","correct"
"83","Subject88","439","rejected","77","rejected","colorblue","test","num1","typenegative","singlestim","19","113254","100010","edm","paicipantresponseblue","correct"
"84","Subject89","387","pleasure","77","pleasure","colorblue","test","num1","typepositive","singlestim","19","83137","100010","edm","paicipantresponseblue","correct"
"85","Subject90","paper","1","paper","colorred","test","num1","typeneutral","singlestim","19","90909","100010","ed","incorrect","776","suicide"
"86","Subject91","390","happy","67","happy","colorred","test","num1","typepositive","singlestim","19","71882","100010","edc","paicipantresponsered","correct"
"87","Subject92","485","suicide","77","suicide","colorblue","test","num1","typesuicide","singlestim","19","116461","100010","edm","paicipantresponseblue","correct"
"88","Subject93","450","dead","67","dead","colorred","test","num1","typesuicide","singlestim","19","57975","100010","edc","paicipantresponsered","correct"
"89","Subject94","376","suicide","67","suicide","colorred","test","num1","typesuicide","singlestim","19","67434","100010","edc","paicipantresponsered","correct"
"90","Subject95","981","funeral","67","funeral","colorred","test","num1","typesuicide","singlestim","19","66809","100010","edc","paicipantresponsered","correct"
"91","Subject96","461","funeral","77","funeral","colorblue","test","num1","typesuicide","singlestim","19","93596","100010","edm","paicipantresponseblue","correct"
"92","Subject97","455","success","67","success","colorred","test","num1","typepositive","singlestim","19","75269","100010","edc","paicipantresponsered","correct"
"93","Subject98","703","suicide","67","suicide","colorred","test","num1","typesuicide","singlestim","19","57445","100010","edc","paicipantresponsered","correct"
"94","Subject99","414","funeral","67","funeral","colorred","test","num1","typesuicide","singlestim","19","81470","100010","edc","paicipantresponsered","correct"
"95","Subject100","352","alone","77","alone","colorblue","test","num1","typenegative","singlestim","19","92035","100010","edm","paicipantresponseblue","correct"
"96","Subject101","614","success","67","success","colorred","test","num1","typepositive","singlestim","19","85802","100010","edc","paicipantresponsered","correct"
"97","Subject102","439","alone","67","alone","colorred","test","num1","typenegative","singlestim","19","273534","100010","edc","paicipantresponsered","correct"
"98","Subject103","427","happy","67","happy","colorred","test","num1","typepositive","singlestim","19","154934","100010","edc","paicipantresponsered","correct"
"99","Subject104","407","rejected","77","rejected","colorblue","test","num1","typenegative","singlestim","19","1058381","100010","edm","paicipantresponseblue","correct"
"100","Subject105","414","happy","77","happy","colorblue","test","num1","typepositive","singlestim","19","76190","100010","edm","paicipantresponseblue","correct"
"101","Subject106","815","museum","77","museum","colorblue","test","num1","typeneutral","singlestim","19","118602","100010","edm","paicipantresponseblue","correct"
"102","Subject107","808","engine","77","engine","colorblue","test","num1","typeneutral","singlestim","19","135936","100010","edm","paicipantresponseblue","correct"
"103","Subject108","335","engine","77","engine","colorblue","test","num1","typeneutral","singlestim","19","105492","100010","edm","paicipantresponseblue","correct"
"104","Subject109","suicide","77","suicide","colorblue","test","num1","typesuicide","singlestim","19","82962","100010","edm","paicipantresponseblue","correct","519"
"105","Subject110","501","success","67","success","colorred","test","num1","typepositive","singlestim","19","65133","100010","edc","paicipantresponsered","correct"
"106","Subject111","1762","museum","67","museum","colorred","test","num1","typeneutral","singlestim","19","110861","100010","edc","paicipantresponsered","correct"
"107","Subject112","401","success","77","success","colorblue","test","num1","typepositive","singlestim","19","87256","100010","edm","paicipantresponseblue","correct"
"108","Subject113","581","engine","67","engine","colorred","test","num1","typeneutral","singlestim","19","62149","100010","edc","paicipantresponsered","correct"
"109","Subject114","552","paper","77","paper","colorblue","test","num1","typeneutral","singlestim","19","119136","100010","edm","paicipantresponseblue","correct"
"110","Subject115","779","stupid","77","stupid","colorblue","test","num1","typenegative","singlestim","19","86087","100010","edm","paicipantresponseblue","correct"
"111","Subject116","488","success","77","success","colorblue","test","num1","typepositive","singlestim","19","106122","100010","edm","paicipantresponseblue","correct"
"112","Subject117","315","dead","67","dead","colorred","test","num1","typesuicide","singlestim","19","130701","100010","edc","paicipantresponsered","correct"
"113","Subject118","425","museum","77","museum","colorblue","test","num1","typeneutral","singlestim","19","102714","100010","edm","paicipantresponseblue","correct"
"114","Subject119","912","alone","67","alone","colorred","test","num1","typenegative","singlestim","19","74884","100010","edc","paicipantresponsered","correct"
"115","Subject120","1094","rejected","77","rejected","colorblue","test","num1","typenegative","singlestim","19","488065","100010","edm","paicipantresponseblue","correct"
"116","Subject121","873","suicide","67","suicide","colorred","test","num1","typesuicide","singlestim","19","68757","100010","edc","paicipantresponsered","correct"
"117","Subject123","1448","paper","67","paper","colorred","test","num1","typeneutral","singlestim","19","66848","100010","edc","paicipantresponsered","correct"
"118","Subject124","1125","dead","67","dead","colorred","test","num1","typesuicide","singlestim","19","109344","100010","edc","paicipantresponsered","correct"
"119","Subject125","suicide","77","suicide","colorblue","test","num1","typesuicide","singlestim","19","73878","100010","edm","paicipantresponseblue","correct","553"
"120","Subject126","364","museum","77","museum","colorblue","test","num1","typeneutral","singlestim","19","101000","100010","edm","paicipantresponseblue","correct"
"121","Subject127","942","funeral","77","funeral","colorblue","test","num1","typesuicide","singlestim","19","80195","100010","edm","paicipantresponseblue","correct"
"122","Subject128","435","engine","67","engine","colorblue","test","num1","typeneutral","singlestim","19","296665","100010","edc","paicipantresponsered","incorrect"
"123","Subject129","509","pleasure","77","pleasure","colorblue","test","num1","typepositive","singlestim","19","69403","100010","edm","paicipantresponseblue","correct"
"124","Subject130","669","stupid","67","stupid","colorred","test","num1","typenegative","singlestim","19","78154","100010","edc","paicipantresponsered","correct"
"125","Subject131","540","rejected","77","rejected","colorred","test","num1","typenegative","singlestim","19","116018","100010","edm","paicipantresponseblue","incorrect"
"126","Subject132","1768","pleasure","67","pleasure","colorred","test","num1","typepositive","singlestim","19","64495","100010","edc","paicipantresponsered","correct"
"127","Subject133","472","suicide","67","suicide","colorred","test","num1","typesuicide","singlestim","19","80281","100010","edc","paicipantresponsered","correct"
"128","Subject134","1038","alone","77","alone","colorblue","test","num1","typenegative","singlestim","19","70793","100010","edm","paicipantresponseblue","correct"
"129","Subject135","1042","happy","77","happy","colorblue","test","num1","typepositive","singlestim","19","81509","100010","edm","paicipantresponseblue","correct"
"130","Subject137","325","museum","77","museum","colorblue","test","num1","typeneutral","singlestim","19","80459","100010","edm","paicipantresponseblue","correct"
"131","Subject138","572","happy","77","happy","colorblue","test","num1","typepositive","singlestim","19","117688","100010","edm","paicipantresponseblue","correct"
"132","Subject139","507","suicide","77","suicide","colorblue","test","num1","typesuicide","singlestim","19","75739","100010","edm","paicipantresponseblue","correct"
"133","Subject140","290","stupid","67","stupid","colorred","test","num1","typenegative","singlestim","19","74108","100010","edc","paicipantresponsered","correct"
"134","Subject141","450","alone","77","alone","colorblue","test","num1","typenegative","singlestim","19","112950","100010","edm","paicipantresponseblue","correct"
"135","Subject142","456","dead","67","dead","colorred","test","num1","typesuicide","singlestim","19","121381","100010","edc","paicipantresponsered","correct"
"136","Subject143","628","suicide","67","suicide","colorred","test","num1","typesuicide","singlestim","19","88663","100010","edc","paicipantresponsered","correct"
"137","Subject144","531","alone","67","alone","colorred","test","num1","typenegative","singlestim","19","128563","100010","edc","paicipantresponsered","correct"
"138","Subject145","453","rejected","77","rejected","colorblue","test","num1","typenegative","singlestim","19","91141","100010","edm","paicipantresponseblue","correct"
"139","Subject146","510","paper","67","paper","colorred","test","num1","typeneutral","singlestim","19","118960","100010","edc","paicipantresponsered","correct"
"140","Subject147","443","suicide","67","suicide","colorred","test","num1","typesuicide","singlestim","19","82657","100010","edc","paicipantresponsered","correct"
"141","Subject148","939","paper","77","paper","colorblue","test","num1","typeneutral","singlestim","19","83375","100010","edm","paicipantresponseblue","correct"
"142","Subject149","697","funeral","77","funeral","colorblue","test","num1","typesuicide","singlestim","19","62940","100010","edm","paicipantresponseblue","correct"
"143","Subject150","67","success","colorred","test","num1","typepositive","singlestim","19","87642","100010","edc","paicipantresponsered","correct","486","paper"
"144","Subject151","319","pleasure","67","pleasure","colorred","test","num1","typepositive","singlestim","19","58162","100010","edc","paicipantresponsered","correct"
"145","Subject152","504","pleasure","67","pleasure","colorred","test","num1","typepositive","singlestim","19","83107","100010","edc","paicipantresponsered","correct"
"146","Subject154","404","funeral","77","funeral","colorblue","test","num1","typesuicide","singlestim","19","454546","100010","edm","paicipantresponseblue","correct"
"147","Subject155","suicide","67","suicide","colorblue","test","num1","typesuicide","singlestim","19","64377","100010","edc","paicipantresponsered","incorrect","980"
"148","Subject156","412","alone","67","alone","colorred","test","num1","typenegative","singlestim","19","175684","100010","edc","paicipantresponsered","correct"
"149","Subject157","singlestim","19","83165","100010","edc","paicipantresponsered","correct","1002","funeral","77","funeral","colorblue","test","num1","typesuicide"
"150","Subject158","447","pleasure","77","pleasure","colorblue","test","num1","typepositive","singlestim","19","71551","100010","edm","paicipantresponseblue","correct"
"151","Subject159","417","funeral","77","funeral","colorblue","test","num1","typesuicide","singlestim","19","82293","100010","edm","paicipantresponseblue","correct"
"152","Subject181","519","museum","77","museum","colorblue","test","num1","typeneutral","singlestim","19","150941","100010","edm","paicipantresponseblue","correct"
"153","Subject182","531","dead","77","dead","colorblue","test","num1","typesuicide","singlestim","19","93090","100010","edm","paicipantresponseblue","correct"
"154","Subject183","920","funeral","67","funeral","colorred","test","num1","typesuicide","singlestim","19","89117","100010","edc","paicipantresponsered","correct"
"155","Subject184","391","engine","77","engine","colorblue","test","num1","typeneutral","singlestim","19","82646","100010","edm","paicipantresponseblue","correct"
"156","Subject185","478","rejected","67","rejected","colorred","test","num1","typenegative","singlestim","19","161541","100010","edc","paicipantresponsered","correct"
"157","Subject186","446","alone","67","alone","colorred","test","num1","typenegative","singlestim","19","113905","100010","edc","paicipantresponsered","correct"
"158","Subject187","3258","73","text","18","101470","101","630","radio","67","radio","colorred","practice","num0","typepractice","singlestim"
"159","Subject188","alone","77","alone","colorblue","test","num1","typenegative","singlestim","19","93757","100010","edm","paicipantresponseblue","correct","380"
"160","Subject189","633","alone","67","alone","colorred","test","num1","typenegative","singlestim","19","116080","100010","edc","paicipantresponsered","correct"
"161","Subject190","67","funeral","colorred","test","num1","typesuicide","singlestim","19","80032","100010","edc","paicipantresponsered","correct","421","suicide"
"162","Subject191","479","engine","77","engine","colorblue","test","num1","typeneutral","singlestim","19","103458","100010","edm","paicipantresponseblue","correct"
"163","Subject192","947","dead","67","dead","colorred","test","num1","typesuicide","singlestim","19","222623","100010","edc","paicipantresponsered","correct"
"164","Subject193","545","dead","77","dead","colorblue","test","num1","typesuicide","singlestim","19","73855","100010","edm","paicipantresponseblue","correct"
"165","Subject194","engine","67","engine","colorred","test","num1","typeneutral","singlestim","19","66964","100010","edc","paicipantresponsered","correct","303"
"166","Subject196","863","success","67","success","colorred","test","num1","typepositive","singlestim","19","101557","100010","edc","paicipantresponsered","correct"
"167","Subject197","433","stupid","67","stupid","colorred","test","num1","typenegative","singlestim","19","75403","100010","edc","paicipantresponsered","correct"
"168","Subject198","554","rejected","77","rejected","colorblue","test","num1","typenegative","singlestim","19","157076","100010","edm","paicipantresponseblue","correct"
"169","Subject199","colorred","test","num1","typeneutral","singlestim","19","147496","100010","edc","paicipantresponsered","correct","621","success","67","success"
"170","Subject200","1748","happy","77","happy","colorblue","test","num1","typepositive","singlestim","19","85956","100010","edm","paicipantresponseblue","correct"
"171","Subject201","355","paper","67","paper","colorred","test","num1","typeneutral","singlestim","19","401871","100010","edc","paicipantresponsered","correct"
"172","Subject202","514","museum","77","museum","colorblue","test","num1","typeneutral","singlestim","19","482447","100010","edm","paicipantresponseblue","correct"
"173","Subject203","350","funeral","77","funeral","colorblue","test","num1","typesuicide","singlestim","19","108068","100010","edm","paicipantresponseblue","correct"
"174","Subject204","1192","engine","67","engine","colorred","test","num1","typeneutral","singlestim","19","59708","100010","edc","paicipantresponsered","correct"
"175","Subject205","467","alone","67","alone","colorred","test","num1","typenegative","singlestim","19","118339","100010","edc","paicipantresponsered","correct"
"176","Subject206","1096","funeral","77","funeral","colorblue","test","num1","typesuicide","singlestim","19","84204","100010","edm","paicipantresponseblue","correct"
"177","Subject207","364","happy","77","happy","colorblue","test","num1","typepositive","singlestim","19","100679","100010","edm","paicipantresponseblue","correct"
"178","Subject208","534","pleasure","77","pleasure","colorblue","test","num1","typepositive","singlestim","19","100838","100010","edm","paicipantresponseblue","correct"
"179","Subject209","289","happy","67","happy","colorred","test","num1","typepositive","singlestim","19","58796","100010","edc","paicipantresponsered","correct"
"180","Subject210","633","happy","67","happy","colorred","test","num1","typepositive","singlestim","19","90018","100010","edc","paicipantresponsered","correct"
"181","Subject212","827","paper","67","paper","colorred","test","num1","typeneutral","singlestim","19","71941","100010","edc","paicipantresponsered","correct"
"182","Subject213","623","dead","67","dead","colorred","test","num1","typesuicide","singlestim","19","101512","100010","edc","paicipantresponsered","correct"
"183","Subject214","345","stupid","67","stupid","colorred","test","num1","typenegative","singlestim","19","68661","100010","edc","paicipantresponsered","correct"
"184","Subject215","603","paper","77","paper","colorblue","test","num1","typeneutral","singlestim","19","74904","100010","edm","paicipantresponseblue","correct"
"185","Subject216","dead","67","dead","colorred","test","num1","typesuicide","singlestim","19","68989","100010","edc","paicipantresponsered","correct","666"
"186","Subject217","477","pleasure","67","pleasure","colorred","test","num1","typepositive","singlestim","19","85966","100010","edc","paicipantresponsered","correct"
"187","Subject219","426","suicide","77","suicide","colorblue","test","num1","typesuicide","singlestim","19","65107","100010","edm","paicipantresponseblue","correct"
"188","Subject220","dead","77","dead","colorblue","test","num1","typesuicide","singlestim","19","103352","100010","edm","paicipantresponseblue","correct","834"
"189","Subject221","479","rejected","77","rejected","colorblue","test","num1","typenegative","singlestim","19","83592","100010","edm","paicipantresponseblue","correct"
"190","Subject222","366","pleasure","67","pleasure","colorred","test","num1","typepositive","singlestim","19","84737","100010","edc","paicipantresponsered","correct"
"191","Subject223","660","paper","67","paper","colorred","test","num1","typeneutral","singlestim","19","108303","100010","edc","paicipantresponsered","correct"
"192","Subject224","386","museum","77","museum","colorblue","test","num1","typeneutral","singlestim","19","81812","100010","edm","paicipantresponseblue","correct"
"193","Subject225","617","stupid","67","stupid","colorred","test","num1","typenegative","singlestim","19","114853","100010","edc","paicipantresponsered","correct"
"194","Subject226","578","stupid","77","stupid","colorblue","test","num1","typenegative","singlestim","19","91894","100010","edm","paicipantresponseblue","correct"
"195","Subject227","671","pleasure","67","pleasure","colorred","test","num1","typepositive","singlestim","19","77311","100010","edc","paicipantresponsered","correct"
"196","Subject228","625","funeral","77","funeral","colorblue","test","num1","typesuicide","singlestim","19","105629","100010","edm","paicipantresponseblue","correct"
"197","Subject229","733","success","77","success","colorblue","test","num1","typepositive","singlestim","19","108554","100010","edm","paicipantresponseblue","correct"
"198","Subject230","432","rejected","77","rejected","colorred","test","num1","typenegative","singlestim","19","92536","100010","edm","paicipantresponseblue","incorrect"
"199","Subject231","436","alone","67","alone","colorred","test","num1","typenegative","singlestim","19","88298","100010","edc","paicipantresponsered","correct"
"200","Subject232","449","engine","77","engine","colorblue","test","num1","typeneutral","singlestim","19","93335","100010","edm","paicipantresponseblue","correct"
"201","Subject233","457","funeral","67","funeral","colorred","test","num1","typesuicide","singlestim","19","76481","100010","edc","paicipantresponsered","correct"
"202","Subject234","652","suicide","77","suicide","colorblue","test","num1","typesuicide","singlestim","19","113948","100010","edm","paicipantresponseblue","correct"
"203","Subject236","855","pleasure","77","pleasure","colorblue","test","num1","typepositive","singlestim","19","99312","100010","edm","paicipantresponseblue","correct"
"204","Subject237","807","suicide","67","suicide","colorred","test","num1","typesuicide","singlestim","19","80811","100010","edc","paicipantresponsered","correct"
"205","Subject238","356","stupid","77","stupid","colorblue","test","num1","typenegative","singlestim","19","74699","100010","edm","paicipantresponseblue","correct"
"206","Subject239","765","stupid","77","stupid","colorblue","test","num1","typenegative","singlestim","19","115957","100010","edm","paicipantresponseblue","correct"
"207","Subject240","642","funeral","77","funeral","colorblue","test","num1","typesuicide","singlestim","19","156040","100010","edm","paicipantresponseblue","correct"
"208","Subject241","568","suicide","77","suicide","colorblue","test","num1","typesuicide","singlestim","19","113448","100010","edm","paicipantresponseblue","correct"
"209","Subject242","1105","stupid","67","stupid","colorred","test","num1","typenegative","singlestim","19","89455","100010","edc","paicipantresponsered","correct"
"210","Subject243","success","77","success","colorblue","test","num1","typepositive","singlestim","19","422560","100010","edm","paicipantresponseblue","correct","445"
"211","Subject244","success","67","success","colorred","test","num1","typepositive","singlestim","19","92659","100010","edc","paicipantresponsered","correct","841"
"212","Subject245","820","engine","67","engine","colorred","test","num1","typeneutral","singlestim","19","80855","100010","edc","paicipantresponsered","correct"
"213","Subject246","rejected","67","rejected","colorred","test","num1","typenegative","singlestim","19","82898","100010","edc","paicipantresponsered","correct","492"
"214","Subject247","2192","77","text","18","178270","101","458","table","77","table","colorblue","practice","num0","typepractice","singlestim"
"215","Subject248","486","engine","67","engine","colorred","test","num1","typeneutral","singlestim","19","70807","100010","edc","paicipantresponsered","correct"
"216","Subject249","330","success","67","success","colorred","test","num1","typepositive","singlestim","19","60153","100010","edc","paicipantresponsered","correct"
"217","Subject250","550","suicide","77","suicide","colorblue","test","num1","typesuicide","singlestim","19","140222","100010","edm","paicipantresponseblue","correct"
"218","Subject251","416","happy","77","happy","colorblue","test","num1","typepositive","singlestim","19","63119","100010","edm","paicipantresponseblue","correct"
"219","Subject252","627","pleasure","77","pleasure","colorblue","test","num1","typepositive","singlestim","19","85575","100010","edm","paicipantresponseblue","correct"
"220","Subject253","485","alone","77","alone","colorblue","test","num1","typenegative","singlestim","19","92959","100010","edm","paicipantresponseblue","correct"
"221","Subject254","406","paper","77","paper","colorblue","test","num1","typeneutral","singlestim","19","198139","100010","edm","paicipantresponseblue","correct"
"222","Subject255","637","engine","77","engine","colorblue","test","num1","typeneutral","singlestim","19","118415","100010","edm","paicipantresponseblue","correct"
"223","Subject256","440","dead","67","dead","colorred","test","num1","typesuicide","singlestim","19","120112","100010","edc","paicipantresponsered","correct"
"224","Subject257","420","suicide","67","suicide","colorred","test","num1","typesuicide","singlestim","19","125735","100010","edc","paicipantresponsered","correct"
"225","Subject258","723","dead","67","dead","colorred","test","num1","typesuicide","singlestim","19","76035","100010","edc","paicipantresponsered","correct"
"226","Subject259","560","funeral","77","funeral","colorblue","test","num1","typesuicide","singlestim","19","61174","100010","edm","paicipantresponseblue","correct"
"227","Subject260","565","happy","67","happy","colorred","test","num1","typepositive","singlestim","19","64720","100010","edc","paicipantresponsered","correct"
"228","Subject261","496","success","67","success","colorred","test","num1","typepositive","singlestim","19","82664","100010","edc","paicipantresponsered","correct"
"229","Subject262","833","funeral","77","funeral","colorblue","test","num1","typesuicide","singlestim","19","106484","100010","edm","paicipantresponseblue","correct"
"230","Subject263","564","happy","77","happy","colorblue","test","num1","typepositive","singlestim","19","88404","100010","edm","paicipantresponseblue","correct"
"231","Subject264","536","engine","77","engine","colorblue","test","num1","typeneutral","singlestim","19","59229","100010","edm","paicipantresponseblue","correct"
"232","Subject265","67","funeral","colorred","test","num1","typesuicide","singlestim","19","294216","100010","edc","paicipantresponsered","correct","857","museum"
"233","Subject266","579","pleasure","77","pleasure","colorblue","test","num1","typepositive","singlestim","19","57961","100010","edm","paicipantresponseblue","correct"
"234","Subject267","688","stupid","77","stupid","colorblue","test","num1","typenegative","singlestim","19","69446","100010","edm","paicipantresponseblue","correct"
"235","Subject268","431","dead","77","dead","colorblue","test","num1","typesuicide","singlestim","19","146668","100010","edm","paicipantresponseblue","correct"
"236","Subject269","531","rejected","77","rejected","colorblue","test","num1","typenegative","singlestim","19","96292","100010","edm","paicipantresponseblue","correct"
"237","Subject270","983","paper","77","paper","colorblue","test","num1","typeneutral","singlestim","19","162659","100010","edm","paicipantresponseblue","correct"
"238","Subject271","666","success","77","success","colorblue","test","num1","typepositive","singlestim","19","98546","100010","edm","paicipantresponseblue","correct"
"239","Subject272","1009","dead","67","dead","colorred","test","num1","typesuicide","singlestim","19","78414","100010","edc","paicipantresponsered","correct"
"240","Subject273","848","funeral","67","funeral","colorred","test","num1","typesuicide","singlestim","19","72646","100010","edc","paicipantresponsered","correct"
"241","Subject274","test","num1","typepositive","singlestim","19","2740235","100010","edn","incorrect","359","stupid","67","stupid","colorred","test"
"242","Subject276","453","pleasure","67","pleasure","colorred","test","num1","typepositive","singlestim","19","57555","100010","edc","paicipantresponsered","correct"
"243","Subject277","770","alone","77","alone","colorblue","test","num1","typenegative","singlestim","19","95025","100010","edm","paicipantresponseblue","correct"
"244","Subject278","1050","success","67","success","colorred","test","num1","typepositive","singlestim","19","6611310","100010","edc","paicipantresponsered","correct"
"245","Subject279","442","suicide","67","suicide","colorred","test","num1","typesuicide","singlestim","19","94977","100010","edc","paicipantresponsered","correct"
"246","Subject280","635","suicide","77","suicide","colorblue","test","num1","typesuicide","singlestim","19","81888","100010","edm","paicipantresponseblue","correct"
"247","Subject281","singlestim","19","135181","100010","edc","paicipantresponsered","correct","543","pleasure","67","pleasure","colorred","test","num1","typepositive"
"248","Subject283","633","paper","77","paper","colorblue","test","num1","typeneutral","singlestim","19","77507","100010","edm","paicipantresponseblue","correct"
"249","Subject284","547","suicide","77","suicide","colorblue","test","num1","typesuicide","singlestim","19","86475","100010","edm","paicipantresponseblue","correct"
"250","Subject285","museum","77","museum","colorblue","test","num1","typeneutral","singlestim","19","86414","100010","edm","paicipantresponseblue","correct","307"
"251","Subject286","1122","rejected","67","rejected","colorred","test","num1","typenegative","singlestim","19","67319","100010","edc","paicipantresponsered","correct"
"252","Subject287","489","pleasure","67","pleasure","colorred","test","num1","typepositive","singlestim","19","80951","100010","edc","paicipantresponsered","correct"
"253","Subject288","483","stupid","77","stupid","colorblue","test","num1","typenegative","singlestim","19","88966","100010","edm","paicipantresponseblue","correct"
"254","Subject289","426","success","67","success","colorred","test","num1","typepositive","singlestim","19","82265","100010","edc","paicipantresponsered","correct"
"255","Subject290","828","stupid","77","stupid","colorblue","test","num1","typenegative","singlestim","19","142444","100010","edm","paicipantresponseblue","correct"
"256","Subject291","506","stupid","77","stupid","colorblue","test","num1","typenegative","singlestim","19","72936","100010","edm","paicipantresponseblue","correct"
"257","Subject292","432","pleasure","67","pleasure","colorred","test","num1","typepositive","singlestim","19","96041","100010","edc","paicipantresponsered","correct"
"258","Subject293","502","museum","77","museum","colorblue","test","num1","typeneutral","singlestim","19","98816","100010","edm","paicipantresponseblue","correct"
"259","Subject294","1061","paper","77","paper","colorblue","test","num1","typeneutral","singlestim","19","66553","100010","edm","paicipantresponseblue","correct"
"260","Subject295","415","pleasure","77","pleasure","colorblue","test","num1","typepositive","singlestim","19","99350","100010","edm","paicipantresponseblue","correct"
"261","Subject296","464","suicide","67","suicide","colorred","test","num1","typesuicide","singlestim","19","88821","100010","edc","paicipantresponsered","correct"
"262","Subject297","501","museum","77","museum","colorblue","test","num1","typeneutral","singlestim","19","99116","100010","edm","paicipantresponseblue","correct"
"263","Subject298","443","museum","67","museum","colorred","test","num1","typeneutral","singlestim","19","64820","100010","edc","paicipantresponsered","correct"
"264","Subject299","617","success","67","success","colorred","test","num1","typepositive","singlestim","19","78215","100010","edc","paicipantresponsered","correct"
"265","Subject300","317","paper","67","paper","colorred","test","num1","typeneutral","singlestim","19","62949","100010","edc","paicipantresponsered","correct"
"266","Subject301","832","engine","77","engine","colorblue","test","num1","typeneutral","singlestim","19","70962","100010","edm","paicipantresponseblue","correct"
"267","Subject302","596","paper","67","paper","colorred","test","num1","typeneutral","singlestim","19","68430","100010","edc","paicipantresponsered","correct"
"268","Subject303","592","rejected","77","rejected","colorblue","test","num1","typenegative","singlestim","19","86598","100010","edm","paicipantresponseblue","correct"
"269","Subject304","397","dead","77","dead","colorblue","test","num1","typesuicide","singlestim","19","123229","100010","edm","paicipantresponseblue","correct"
"270","Subject305","517","success","67","success","colorred","test","num1","typepositive","singlestim","19","70288","100010","edc","paicipantresponsered","correct"
"271","Subject306","pleasure","67","pleasure","colorred","test","num1","typepositive","singlestim","19","167778","100010","edc","paicipantresponsered","correct","935"
"272","Subject307","1282","paper","67","paper","colorred","test","num1","typeneutral","singlestim","19","97632","100010","edc","paicipantresponsered","correct"
"273","Subject308","422","museum","67","museum","colorred","test","num1","typeneutral","singlestim","19","87600","100010","edc","paicipantresponsered","correct"
"274","Subject309","dead","67","dead","colorred","test","num1","typesuicide","singlestim","19","96521","100010","edc","paicipantresponsered","correct","1035"
"275","Subject310","444","pleasure","77","pleasure","colorblue","test","num1","typepositive","singlestim","19","162252","100010","edm","paicipantresponseblue","correct"
"276","Subject311","438","alone","77","alone","colorblue","test","num1","typenegative","singlestim","19","65382","100010","edm","paicipantresponseblue","correct"
"277","Subject312","427","paper","77","paper","colorblue","test","num1","typeneutral","singlestim","19","148751","100010","edm","paicipantresponseblue","correct"
"278","Subject313","paper","67","paper","colorred","test","num1","typeneutral","singlestim","19","110332","100010","edc","paicipantresponsered","correct","440"
"279","Subject314","415","dead","77","dead","colorblue","test","num1","typesuicide","singlestim","19","80533","100010","edm","paicipantresponseblue","correct"
"280","Subject316","alone","1","alone","colorred","test","num1","typenegative","singlestim","19","101409","100010","ed","incorrect","1","museum"
"281","Subject317","543","alone","77","alone","colorblue","test","num1","typenegative","singlestim","19","125496","100010","edm","paicipantresponseblue","correct"
"282","Subject318","396","success","77","success","colorblue","test","num1","typepositive","singlestim","19","261878","100010","edm","paicipantresponseblue","correct"
"283","Subject319","426","pleasure","77","pleasure","colorblue","test","num1","typepositive","singlestim","19","135304","100010","edm","paicipantresponseblue","correct"
"284","Subject320","77","rejected","colorblue","test","num1","typenegative","singlestim","19","69788","100010","edm","paicipantresponseblue","correct","583","engine"
"285","Subject322","634","pleasure","77","pleasure","colorblue","test","num1","typepositive","singlestim","19","100956","100010","edm","paicipantresponseblue","correct"
"286","Subject323","405","alone","77","alone","colorblue","test","num1","typenegative","singlestim","19","94928","100010","edm","paicipantresponseblue","correct"
"287","Subject324","769","paper","77","paper","colorblue","test","num1","typeneutral","singlestim","19","111293","100010","edm","paicipantresponseblue","correct"
"288","Subject325","476","engine","67","engine","colorred","test","num1","typeneutral","singlestim","19","88699","100010","edc","paicipantresponsered","correct"
"289","Subject326","810","alone","67","alone","colorred","test","num1","typenegative","singlestim","19","115452","100010","edc","paicipantresponsered","correct"
"290","Subject327","960","museum","67","museum","colorred","test","num1","typeneutral","singlestim","19","97676","100010","edc","paicipantresponsered","correct"
"291","Subject328","749","happy","77","happy","colorblue","test","num1","typepositive","singlestim","19","157281","100010","edm","paicipantresponseblue","correct"
"292","Subject329","958","pleasure","67","pleasure","colorred","test","num1","typepositive","singlestim","19","73651","100010","edc","paicipantresponsered","correct"
"293","Subject330","1138","suicide","67","suicide","colorred","test","num1","typesuicide","singlestim","19","172679","100010","edc","paicipantresponsered","correct"
"294","Subject331","423","pleasure","67","pleasure","colorred","test","num1","typepositive","singlestim","19","82922","100010","edc","paicipantresponsered","correct"
"295","Subject332","561","pleasure","67","pleasure","colorred","test","num1","typepositive","singlestim","19","153573","100010","edc","paicipantresponsered","correct"
"296","Subject333","407","engine","67","engine","colorred","test","num1","typeneutral","singlestim","19","84674","100010","edc","paicipantresponsered","correct"
"297","Subject1","671","funeral","77","funeral","colorblue","test","num1","typesuicide","singlestim","21","125598","100030","edm","paicipantresponseblue","correct"
"298","Subject2","423","funeral","67","funeral","colorred","test","num1","typesuicide","singlestim","21","81183","100030","edc","paicipantresponsered","correct"
"299","Subject3","356","suicide","67","suicide","colorred","test","num1","typesuicide","singlestim","21","410414","100030","edc","paicipantresponsered","correct"
"300","Subject4","738","stupid","77","stupid","colorblue","test","num1","typenegative","singlestim","21","94658","100030","edm","paicipantresponseblue","correct"
"301","Subject5","571","success","77","success","colorblue","test","num1","typepositive","singlestim","21","76308","100030","edm","paicipantresponseblue","correct"
"302","Subject6","393","stupid","77","stupid","colorblue","test","num1","typenegative","singlestim","21","156136","100030","edm","paicipantresponseblue","correct"
"303","Subject7","413","rejected","77","rejected","colorblue","test","num1","typenegative","singlestim","21","84990","100030","edm","paicipantresponseblue","correct"
"304","Subject8","287","happy","67","happy","colorred","test","num1","typepositive","singlestim","21","64101","100030","edc","paicipantresponsered","correct"
"305","Subject9","465","success","67","success","colorred","test","num1","typepositive","singlestim","21","78745","100030","edc","paicipantresponsered","correct"
"306","Subject10","alone","77","alone","colorblue","test","num1","typenegative","singlestim","21","100146","100030","edm","paicipantresponseblue","correct","779"
"307","Subject11","651","paper","77","paper","colorblue","test","num1","typeneutral","singlestim","21","145696","100030","edm","paicipantresponseblue","correct"
"308","Subject13","427","museum","77","museum","colorblue","test","num1","typeneutral","singlestim","21","103234","100030","edm","paicipantresponseblue","correct"
"309","Subject14","364","dead","67","dead","colorred","test","num1","typesuicide","singlestim","21","104616","100030","edc","paicipantresponsered","correct"
"310","Subject15","314","happy","77","happy","colorblue","test","num1","typepositive","singlestim","21","100989","100030","edm","paicipantresponseblue","correct"
"311","Subject16","404","museum","77","museum","colorblue","test","num1","typeneutral","singlestim","21","71956","100030","edm","paicipantresponseblue","correct"
"312","Subject17","617","engine","77","engine","colorblue","test","num1","typeneutral","singlestim","21","156825","100030","edm","paicipantresponseblue","correct"
"313","Subject18","379","museum","67","museum","colorred","test","num1","typeneutral","singlestim","21","93335","100030","edc","paicipantresponsered","correct"
"314","Subject19","383","alone","67","alone","colorred","test","num1","typenegative","singlestim","21","112940","100030","edc","paicipantresponsered","correct"
"315","Subject20","500","stupid","77","stupid","colorblue","test","num1","typenegative","singlestim","21","78207","100030","edm","paicipantresponseblue","correct"
"316","Subject21","674","funeral","67","funeral","colorred","test","num1","typesuicide","singlestim","21","72306","100030","edc","paicipantresponsered","correct"
"317","Subject22","funeral","77","funeral","colorblue","test","num1","typesuicide","singlestim","21","104323","100030","edm","paicipantresponseblue","correct","298"
"318","Subject23","460","suicide","67","suicide","colorred","test","num1","typesuicide","singlestim","21","37820","100030","edc","paicipantresponsered","correct"
"319","Subject24","412","engine","67","engine","colorred","test","num1","typeneutral","singlestim","21","95705","100030","edc","paicipantresponsered","correct"
"320","Subject25","412","success","67","success","colorred","test","num1","typepositive","singlestim","21","100082","100030","edc","paicipantresponsered","correct"
"321","Subject26","stupid","67","stupid","colorred","test","num1","typenegative","singlestim","21","1197805","100030","edc","paicipantresponsered","correct","731"
"322","Subject27","474","success","77","success","colorblue","test","num1","typepositive","singlestim","21","174822","100030","edm","paicipantresponseblue","correct"
"323","Subject28","791","stupid","67","stupid","colorred","test","num1","typenegative","singlestim","21","65623","100030","edc","paicipantresponsered","correct"
"324","Subject29","550","engine","67","engine","colorred","test","num1","typeneutral","singlestim","21","94366","100030","edc","paicipantresponsered","correct"
"325","Subject30","engine","67","engine","colorred","test","num1","typeneutral","singlestim","21","135856","100030","edc","paicipantresponsered","correct","352"
"326","Subject31","335","paper","67","paper","colorblue","test","num1","typeneutral","singlestim","21","115199","100030","edc","paicipantresponsered","incorrect"
"327","Subject32","754","museum","67","museum","colorred","test","num1","typeneutral","singlestim","21","85130","100030","edc","paicipantresponsered","correct"
"328","Subject33","407","paper","77","paper","colorblue","test","num1","typeneutral","singlestim","21","84902","100030","edm","paicipantresponseblue","correct"
"329","Subject34","470","funeral","77","funeral","colorblue","test","num1","typesuicide","singlestim","21","85738","100030","edm","paicipantresponseblue","correct"
"330","Subject35","478","pleasure","67","pleasure","colorred","test","num1","typepositive","singlestim","21","80496","100030","edc","paicipantresponsered","correct"
"331","Subject36","497","stupid","67","stupid","colorred","test","num1","typenegative","singlestim","21","91205","100030","edc","paicipantresponsered","correct"
"332","Subject37","662","stupid","77","stupid","colorblue","test","num1","typenegative","singlestim","21","91784","100030","edm","paicipantresponseblue","correct"
"333","Subject38","engine","77","engine","colorblue","test","num1","typeneutral","singlestim","21","103832","100030","edm","paicipantresponseblue","correct","431"
"334","Subject39","299","success","77","success","colorblue","test","num1","typepositive","singlestim","21","83980","100030","edm","paicipantresponseblue","correct"
"335","Subject40","634","happy","67","happy","colorred","test","num1","typepositive","singlestim","21","77276","100030","edc","paicipantresponsered","correct"
"336","Subject41","alone","77","alone","colorblue","test","num1","typenegative","singlestim","21","101145","100030","edm","paicipantresponseblue","correct","443"
"337","Subject42","333","suicide","77","suicide","colorblue","test","num1","typesuicide","singlestim","21","84099","100030","edm","paicipantresponseblue","correct"
"338","Subject43","569","dead","77","dead","colorblue","test","num1","typesuicide","singlestim","21","100797","100030","edm","paicipantresponseblue","correct"
"339","Subject44","673","happy","77","happy","colorblue","test","num1","typepositive","singlestim","21","79069","100030","edm","paicipantresponseblue","correct"
"340","Subject45","701","success","67","success","colorred","test","num1","typepositive","singlestim","21","88544","100030","edc","paicipantresponsered","correct"
"341","Subject46","359","dead","77","dead","colorblue","test","num1","typesuicide","singlestim","21","120398","100030","edm","paicipantresponseblue","correct"
"342","Subject47","489","success","67","success","colorred","test","num1","typepositive","singlestim","21","85293","100030","edc","paicipantresponsered","correct"
"343","Subject48","420","rejected","67","rejected","colorred","test","num1","typenegative","singlestim","21","80538","100030","edc","paicipantresponsered","correct"
"344","Subject49","431","happy","77","happy","colorblue","test","num1","typepositive","singlestim","21","108713","100030","edm","paicipantresponseblue","correct"
"345","Subject50","466","suicide","67","suicide","colorred","test","num1","typesuicide","singlestim","21","159164","100030","edc","paicipantresponsered","correct"
"346","Subject51","museum","67","museum","colorred","test","num1","typeneutral","singlestim","21","70961","100030","edc","paicipantresponsered","correct","595"
"347","Subject52","1376","pleasure","67","pleasure","colorred","test","num1","typepositive","singlestim","21","113850","100030","edc","paicipantresponsered","correct"
"348","Subject55","308","stupid","67","stupid","colorred","test","num1","typenegative","singlestim","21","100413","100030","edc","paicipantresponsered","correct"
"349","Subject56","372","funeral","67","funeral","colorred","test","num1","typesuicide","singlestim","21","89570","100030","edc","paicipantresponsered","correct"
"350","Subject57","507","paper","67","paper","colorred","test","num1","typeneutral","singlestim","21","7827634","100030","edc","paicipantresponsered","correct"
"351","Subject58","778","rejected","77","rejected","colorblue","test","num1","typenegative","singlestim","21","119227","100030","edm","paicipantresponseblue","correct"
"352","Subject59","714","engine","67","engine","colorred","test","num1","typeneutral","singlestim","21","165923","100030","edc","paicipantresponsered","correct"
"353","Subject60","446","engine","67","engine","colorred","test","num1","typeneutral","singlestim","21","102404","100030","edc","paicipantresponsered","correct"
"354","Subject61","692","museum","67","museum","colorred","test","num1","typeneutral","singlestim","21","67115","100030","edc","paicipantresponsered","correct"
"355","Subject62","562","pleasure","67","pleasure","colorred","test","num1","typepositive","singlestim","21","115118","100030","edc","paicipantresponsered","correct"
"356","Subject63","363","happy","67","happy","colorred","test","num1","typepositive","singlestim","21","672869","100030","edc","paicipantresponsered","correct"
"357","Subject64","434","museum","77","museum","colorblue","test","num1","typeneutral","singlestim","21","86776","100030","edm","paicipantresponseblue","correct"
"358","Subject65","350","success","67","success","colorred","test","num1","typepositive","singlestim","21","65247","100030","edc","paicipantresponsered","correct"
"359","Subject66","421","pleasure","67","pleasure","colorred","test","num1","typepositive","singlestim","21","66059","100030","edc","paicipantresponsered","correct"
"360","Subject67","676","alone","77","alone","colorblue","test","num1","typenegative","singlestim","21","85613","100030","edm","paicipantresponseblue","correct"
"361","Subject68","351","paper","77","paper","colorblue","test","num1","typeneutral","singlestim","21","108250","100030","edm","paicipantresponseblue","correct"
"362","Subject69","331","museum","67","museum","colorred","test","num1","typeneutral","singlestim","21","72578","100030","edc","paicipantresponsered","correct"
"363","Subject70","620","happy","77","happy","colorblue","test","num1","typepositive","singlestim","21","83254","100030","edm","paicipantresponseblue","correct"
"364","Subject71","462","funeral","67","funeral","colorred","test","num1","typesuicide","singlestim","21","87871","100030","edc","paicipantresponsered","correct"
"365","Subject72","401","alone","67","alone","colorred","test","num1","typenegative","singlestim","21","64110","100030","edc","paicipantresponsered","correct"
"366","Subject73","350","happy","77","happy","colorblue","test","num1","typepositive","singlestim","21","86570","100030","edm","paicipantresponseblue","correct"
"367","Subject74","513","engine","77","engine","colorblue","test","num1","typeneutral","singlestim","21","79711","100030","edm","paicipantresponseblue","correct"
"368","Subject75","384","suicide","77","suicide","colorblue","test","num1","typesuicide","singlestim","21","108284","100030","edm","paicipantresponseblue","correct"
"369","Subject76","427","dead","67","dead","colorred","test","num1","typesuicide","singlestim","21","80487","100030","edc","paicipantresponsered","correct"
"370","Subject78","507","funeral","67","funeral","colorred","test","num1","typesuicide","singlestim","21","71039","100030","edc","paicipantresponsered","correct"
"371","Subject79","564","funeral","67","funeral","colorred","test","num1","typesuicide","singlestim","21","103026","100030","edc","paicipantresponsered","correct"
"372","Subject80","612","success","77","success","colorblue","test","num1","typepositive","singlestim","21","86429","100030","edm","paicipantresponseblue","correct"
"373","Subject82","326","happy","77","happy","colorblue","test","num1","typepositive","singlestim","21","80184","100030","edm","paicipantresponseblue","correct"
"374","Subject83","392","paper","67","paper","colorred","test","num1","typeneutral","singlestim","21","130809","100030","edc","paicipantresponsered","correct"
"375","Subject84","363","success","77","success","colorblue","test","num1","typepositive","singlestim","21","111427","100030","edm","paicipantresponseblue","correct"
"376","Subject85","921","alone","77","alone","colorblue","test","num1","typenegative","singlestim","21","83424","100030","edm","paicipantresponseblue","correct"
"377","Subject86","alone","67","alone","colorblue","test","num1","typenegative","singlestim","21","118108","100030","edc","paicipantresponsered","incorrect","490"
"378","Subject87","369","alone","77","alone","colorblue","test","num1","typenegative","singlestim","21","67713","100030","edm","paicipantresponseblue","correct"
"379","Subject88","502","museum","67","museum","colorred","test","num1","typeneutral","singlestim","21","118969","100030","edc","paicipantresponsered","correct"
"380","Subject89","426","museum","67","museum","colorred","test","num1","typeneutral","singlestim","21","88768","100030","edc","paicipantresponsered","correct"
"381","Subject90","67","suicide","colorred","test","num1","typesuicide","singlestim","21","96897","100030","edc","paicipantresponsered","correct","649","funeral"
"382","Subject91","354","paper","67","paper","colorred","test","num1","typeneutral","singlestim","21","77448","100030","edc","paicipantresponsered","correct"
"383","Subject92","402","happy","67","happy","colorred","test","num1","typepositive","singlestim","21","122066","100030","edc","paicipantresponsered","correct"
"384","Subject93","453","suicide","67","suicide","colorred","test","num1","typesuicide","singlestim","21","63643","100030","edc","paicipantresponsered","correct"
"385","Subject94","395","rejected","67","rejected","colorred","test","num1","typenegative","singlestim","21","73033","100030","edc","paicipantresponsered","correct"
"386","Subject95","482","museum","77","museum","colorred","test","num1","typeneutral","singlestim","21","72502","100030","edm","paicipantresponseblue","incorrect"
"387","Subject96","411","funeral","67","funeral","colorred","test","num1","typesuicide","singlestim","21","99210","100030","edc","paicipantresponsered","correct"
"388","Subject97","489","happy","77","happy","colorblue","test","num1","typepositive","singlestim","21","80964","100030","edm","paicipantresponseblue","correct"
"389","Subject98","545","happy","67","happy","colorred","test","num1","typepositive","singlestim","21","63202","100030","edc","paicipantresponsered","correct"
"390","Subject99","315","dead","77","dead","colorblue","test","num1","typesuicide","singlestim","21","86991","100030","edm","paicipantresponseblue","correct"
"391","Subject100","391","alone","67","alone","colorred","test","num1","typenegative","singlestim","21","97642","100030","edc","paicipantresponsered","correct"
"392","Subject101","363","stupid","77","stupid","colorblue","test","num1","typenegative","singlestim","21","91371","100030","edm","paicipantresponseblue","correct"
"393","Subject102","390","museum","67","museum","colorred","test","num1","typeneutral","singlestim","21","279137","100030","edc","paicipantresponsered","correct"
"394","Subject103","255","success","77","success","colorblue","test","num1","typepositive","singlestim","21","160401","100030","edm","paicipantresponseblue","correct"
"395","Subject104","330","alone","67","alone","colorred","test","num1","typenegative","singlestim","21","1063923","100030","edc","paicipantresponsered","correct"
"396","Subject105","449","stupid","77","stupid","colorblue","test","num1","typenegative","singlestim","21","81845","100030","edm","paicipantresponseblue","correct"
"397","Subject106","398","stupid","67","stupid","colorred","test","num1","typenegative","singlestim","21","124270","100030","edc","paicipantresponsered","correct"
"398","Subject107","616","suicide","77","suicide","colorblue","test","num1","typesuicide","singlestim","21","141795","100030","edm","paicipantresponseblue","correct"
"399","Subject108","315","success","77","success","colorblue","test","num1","typepositive","singlestim","21","111018","100030","edm","paicipantresponseblue","correct"
"400","Subject109","pleasure","77","pleasure","colorblue","test","num1","typepositive","singlestim","21","88688","100030","edm","paicipantresponseblue","correct","538"
"401","Subject110","437","dead","67","dead","colorred","test","num1","typesuicide","singlestim","21","70772","100030","edc","paicipantresponsered","correct"
"402","Subject111","686","suicide","77","suicide","colorblue","test","num1","typesuicide","singlestim","21","116787","100030","edm","paicipantresponseblue","correct"
"403","Subject112","560","paper","77","paper","colorblue","test","num1","typeneutral","singlestim","21","93028","100030","edm","paicipantresponseblue","correct"
"404","Subject113","802","museum","67","museum","colorred","test","num1","typeneutral","singlestim","21","68164","100030","edc","paicipantresponsered","correct"
"405","Subject114","488","suicide","77","suicide","colorblue","test","num1","typesuicide","singlestim","21","124869","100030","edm","paicipantresponseblue","correct"
"406","Subject115","446","alone","67","alone","colorred","test","num1","typenegative","singlestim","21","91780","100030","edc","paicipantresponsered","correct"
"407","Subject116","476","funeral","67","funeral","colorred","test","num1","typesuicide","singlestim","21","111803","100030","edc","paicipantresponsered","correct"
"408","Subject117","347","suicide","67","suicide","colorred","test","num1","typesuicide","singlestim","21","136257","100030","edc","paicipantresponsered","correct"
"409","Subject118","450","dead","77","dead","colorblue","test","num1","typesuicide","singlestim","21","108370","100030","edm","paicipantresponseblue","correct"
"410","Subject119","688","engine","67","engine","colorred","test","num1","typeneutral","singlestim","21","80788","100030","edc","paicipantresponsered","correct"
"411","Subject120","479","happy","67","happy","colorred","test","num1","typepositive","singlestim","21","493753","100030","edc","paicipantresponsered","correct"
"412","Subject121","658","success","77","success","colorblue","test","num1","typepositive","singlestim","21","74622","100030","edm","paicipantresponseblue","correct"
"413","Subject123","872","rejected","67","rejected","colorred","test","num1","typenegative","singlestim","21","72925","100030","edc","paicipantresponsered","correct"
"414","Subject124","589","rejected","77","rejected","colorblue","test","num1","typenegative","singlestim","21","115135","100030","edm","paicipantresponseblue","correct"
"415","Subject125","funeral","67","funeral","colorred","test","num1","typesuicide","singlestim","21","79647","100030","edc","paicipantresponsered","correct","477"
"416","Subject126","368","happy","77","happy","colorblue","test","num1","typepositive","singlestim","21","106573","100030","edm","paicipantresponseblue","correct"
"417","Subject127","534","alone","67","alone","colorred","test","num1","typenegative","singlestim","21","85941","100030","edc","paicipantresponsered","correct"
"418","Subject128","613","success","67","success","colorred","test","num1","typepositive","singlestim","21","302490","100030","edc","paicipantresponsered","correct"
"419","Subject129","350","museum","77","museum","colorblue","test","num1","typeneutral","singlestim","21","74967","100030","edm","paicipantresponseblue","correct"
"420","Subject130","556","rejected","77","rejected","colorblue","test","num1","typenegative","singlestim","21","83919","100030","edm","paicipantresponseblue","correct"
"421","Subject131","361","dead","77","dead","colorblue","test","num1","typesuicide","singlestim","21","121584","100030","edm","paicipantresponseblue","correct"
"422","Subject132","899","happy","67","happy","colorred","test","num1","typepositive","singlestim","21","70605","100030","edc","paicipantresponsered","correct"
"423","Subject133","499","dead","67","dead","colorred","test","num1","typesuicide","singlestim","21","85989","100030","edc","paicipantresponsered","correct"
"424","Subject134","661","museum","77","museum","colorblue","test","num1","typeneutral","singlestim","21","76664","100030","edm","paicipantresponseblue","correct"
"425","Subject135","468","dead","67","dead","colorred","test","num1","typesuicide","singlestim","21","87187","100030","edc","paicipantresponsered","correct"
"426","Subject137","476","dead","67","dead","colorred","test","num1","typesuicide","singlestim","21","86139","100030","edc","paicipantresponsered","correct"
"427","Subject138","559","paper","77","paper","colorblue","test","num1","typeneutral","singlestim","21","123452","100030","edm","paicipantresponseblue","correct"
"428","Subject139","384","pleasure","67","pleasure","colorred","test","num1","typepositive","singlestim","21","81328","100030","edc","paicipantresponsered","correct"
"429","Subject140","431","success","67","success","colorred","test","num1","typepositive","singlestim","21","79748","100030","edc","paicipantresponsered","correct"
"430","Subject141","776","dead","67","dead","colorred","test","num1","typesuicide","singlestim","21","118939","100030","edc","paicipantresponsered","correct"
"431","Subject142","387","dead","77","dead","colorblue","test","num1","typesuicide","singlestim","21","126975","100030","edm","paicipantresponseblue","correct"
"432","Subject143","370","pleasure","67","pleasure","colorred","test","num1","typepositive","singlestim","21","94238","100030","edc","paicipantresponsered","correct"
"433","Subject144","337","paper","77","paper","colorblue","test","num1","typeneutral","singlestim","21","134110","100030","edm","paicipantresponseblue","correct"
"434","Subject145","310","pleasure","67","pleasure","colorred","test","num1","typepositive","singlestim","21","96657","100030","edc","paicipantresponsered","correct"
"435","Subject146","483","suicide","67","suicide","colorred","test","num1","typesuicide","singlestim","21","124660","100030","edc","paicipantresponsered","correct"
"436","Subject147","461","dead","67","dead","colorred","test","num1","typesuicide","singlestim","21","88329","100030","edc","paicipantresponsered","correct"
"437","Subject148","516","engine","67","engine","colorred","test","num1","typeneutral","singlestim","21","89104","100030","edc","paicipantresponsered","correct"
"438","Subject149","432","engine","67","engine","colorred","test","num1","typeneutral","singlestim","21","68580","100030","edc","paicipantresponsered","correct"
"439","Subject150","67","paper","colorred","test","num1","typeneutral","singlestim","21","93338","100030","edc","paicipantresponsered","correct","399","suicide"
"440","Subject151","585","funeral","67","funeral","colorred","test","num1","typesuicide","singlestim","21","63961","100030","edc","paicipantresponsered","correct"
"441","Subject152","390","museum","77","museum","colorblue","test","num1","typeneutral","singlestim","21","88711","100030","edm","paicipantresponseblue","correct"
"442","Subject154","491","paper","77","paper","colorblue","test","num1","typeneutral","singlestim","21","460253","100030","edm","paicipantresponseblue","correct"
"443","Subject155","success","67","success","colorred","test","num1","typepositive","singlestim","21","70562","100030","edc","paicipantresponsered","correct","908"
"444","Subject156","440","dead","67","dead","colorred","test","num1","typesuicide","singlestim","21","181330","100030","edc","paicipantresponsered","correct"
"445","Subject157","singlestim","21","89373","100030","edm","paicipantresponseblue","correct","1043","success","67","success","colorred","test","num1","typepositive"
"446","Subject158","513","stupid","77","stupid","colorblue","test","num1","typenegative","singlestim","21","77272","100030","edm","paicipantresponseblue","correct"
"447","Subject159","382","pleasure","77","pleasure","colorblue","test","num1","typepositive","singlestim","21","87887","100030","edm","paicipantresponseblue","correct"
"448","Subject181","492","alone","77","alone","colorblue","test","num1","typenegative","singlestim","21","156648","100030","edm","paicipantresponseblue","correct"
"449","Subject182","428","pleasure","67","pleasure","colorred","test","num1","typepositive","singlestim","21","98724","100030","edc","paicipantresponsered","correct"
"450","Subject183","594","happy","77","happy","colorblue","test","num1","typepositive","singlestim","21","94920","100030","edm","paicipantresponseblue","correct"
"451","Subject184","399","paper","77","paper","colorblue","test","num1","typeneutral","singlestim","21","88250","100030","edm","paicipantresponseblue","correct"
"452","Subject185","365","dead","77","dead","colorblue","test","num1","typesuicide","singlestim","21","167157","100030","edm","paicipantresponseblue","correct"
"453","Subject186","478","pleasure","67","pleasure","colorred","test","num1","typepositive","singlestim","21","119600","100030","edc","paicipantresponsered","correct"
"454","Subject187","20","107309","11111","edc","paicipantresponsered","correct","539","basket","77","basket","colorblue","practice","num0","typepractice","singlestim"
"455","Subject188","funeral","67","funeral","colorred","test","num1","typesuicide","singlestim","21","99340","100030","edc","paicipantresponsered","correct","405"
"456","Subject189","346","alone","77","alone","colorblue","test","num1","typenegative","singlestim","21","121638","100030","edm","paicipantresponseblue","correct"
"457","Subject190","67","suicide","colorred","test","num1","typesuicide","singlestim","21","85658","100030","edc","paicipantresponsered","correct","383","paper"
"458","Subject191","467","stupid","67","stupid","colorred","test","num1","typenegative","singlestim","21","109127","100030","edc","paicipantresponsered","correct"
"459","Subject192","646","suicide","67","suicide","colorred","test","num1","typesuicide","singlestim","21","228478","100030","edc","paicipantresponsered","correct"
"460","Subject193","489","suicide","77","suicide","colorblue","test","num1","typesuicide","singlestim","21","79548","100030","edm","paicipantresponseblue","correct"
"461","Subject194","funeral","77","funeral","colorblue","test","num1","typesuicide","singlestim","21","72472","100030","edm","paicipantresponseblue","correct","433"
"462","Subject196","535","rejected","77","rejected","colorblue","test","num1","typenegative","singlestim","21","107307","100030","edm","paicipantresponseblue","correct"
"463","Subject197","467","rejected","67","rejected","colorred","test","num1","typenegative","singlestim","21","81083","100030","edc","paicipantresponsered","correct"
"464","Subject198","321","happy","67","happy","colorred","test","num1","typepositive","singlestim","21","162603","100030","edc","paicipantresponsered","correct"
"465","Subject199","colorred","test","num1","typepositive","singlestim","21","153323","100030","edc","paicipantresponsered","correct","372","dead","77","dead"
"466","Subject200","506","suicide","67","suicide","colorred","test","num1","typesuicide","singlestim","21","91667","100030","edc","paicipantresponsered","correct"
"467","Subject201","393","happy","77","happy","colorblue","test","num1","typepositive","singlestim","21","407478","100030","edm","paicipantresponseblue","correct"
"468","Subject202","521","paper","67","paper","colorred","test","num1","typeneutral","singlestim","21","488170","100030","edc","paicipantresponsered","correct"
"469","Subject203","326","alone","67","alone","colorred","test","num1","typenegative","singlestim","21","113596","100030","edc","paicipantresponsered","correct"
"470","Subject204","391","alone","77","alone","colorblue","test","num1","typenegative","singlestim","21","65306","100030","edm","paicipantresponseblue","correct"
"471","Subject205","448","success","77","success","colorblue","test","num1","typepositive","singlestim","21","123994","100030","edm","paicipantresponseblue","correct"
"472","Subject206","715","success","67","success","colorred","test","num1","typepositive","singlestim","21","90129","100030","edc","paicipantresponsered","correct"
"473","Subject207","452","success","77","success","colorblue","test","num1","typepositive","singlestim","21","106344","100030","edm","paicipantresponseblue","correct"
"474","Subject208","492","paper","77","paper","colorblue","test","num1","typeneutral","singlestim","21","106534","100030","edm","paicipantresponseblue","correct"
"475","Subject209","321","engine","77","engine","colorblue","test","num1","typeneutral","singlestim","21","64344","100030","edm","paicipantresponseblue","correct"
"476","Subject210","476","rejected","67","rejected","colorred","test","num1","typenegative","singlestim","21","95703","100030","edc","paicipantresponsered","correct"
"477","Subject212","477","stupid","67","stupid","colorred","test","num1","typenegative","singlestim","21","77629","100030","edc","paicipantresponsered","correct"
"478","Subject213","359","engine","77","engine","colorblue","test","num1","typeneutral","singlestim","21","107079","100030","edm","paicipantresponseblue","correct"
"479","Subject214","449","alone","77","alone","colorblue","test","num1","typenegative","singlestim","21","74318","100030","edm","paicipantresponseblue","correct"
"480","Subject215","734","museum","67","museum","colorred","test","num1","typeneutral","singlestim","21","80842","100030","edc","paicipantresponsered","correct"
"481","Subject216","alone","77","alone","colorblue","test","num1","typenegative","singlestim","21","74864","100030","edm","paicipantresponseblue","correct","966"
"482","Subject217","409","rejected","77","rejected","colorblue","test","num1","typenegative","singlestim","21","91581","100030","edm","paicipantresponseblue","correct"
"483","Subject219","327","pleasure","67","pleasure","colorred","test","num1","typepositive","singlestim","21","70640","100030","edc","paicipantresponsered","correct"
"484","Subject220","alone","67","alone","colorred","test","num1","typenegative","singlestim","21","109391","100030","edc","paicipantresponsered","correct","594"
"485","Subject221","372","alone","77","alone","colorblue","test","num1","typenegative","singlestim","21","89169","100030","edm","paicipantresponseblue","correct"
"486","Subject222","425","funeral","77","funeral","colorblue","test","num1","typesuicide","singlestim","21","90376","100030","edm","paicipantresponseblue","correct"
"487","Subject223","501","stupid","77","stupid","colorblue","test","num1","typenegative","singlestim","21","114018","100030","edm","paicipantresponseblue","correct"
"488","Subject224","441","dead","77","dead","colorblue","test","num1","typesuicide","singlestim","21","87457","100030","edm","paicipantresponseblue","correct"
"489","Subject225","441","pleasure","77","pleasure","colorblue","test","num1","typepositive","singlestim","21","120506","100030","edm","paicipantresponseblue","correct"
"490","Subject226","560","paper","77","paper","colorblue","test","num1","typeneutral","singlestim","21","97660","100030","edm","paicipantresponseblue","correct"
"491","Subject227","368","stupid","77","stupid","colorblue","test","num1","typenegative","singlestim","21","82895","100030","edm","paicipantresponseblue","correct"
"492","Subject228","556","alone","67","alone","colorred","test","num1","typenegative","singlestim","21","111391","100030","edc","paicipantresponsered","correct"
"493","Subject229","312","alone","67","alone","colorred","test","num1","typenegative","singlestim","21","114070","100030","edc","paicipantresponsered","correct"
"494","Subject230","426","suicide","77","suicide","colorblue","test","num1","typesuicide","singlestim","21","98174","100030","edm","paicipantresponseblue","correct"
"495","Subject231","613","rejected","67","rejected","colorred","test","num1","typenegative","singlestim","21","94122","100030","edc","paicipantresponsered","correct"
"496","Subject232","537","museum","77","museum","colorblue","test","num1","typeneutral","singlestim","21","99079","100030","edm","paicipantresponseblue","correct"
"497","Subject233","426","funeral","77","funeral","colorblue","test","num1","typesuicide","singlestim","21","82112","100030","edm","paicipantresponseblue","correct"
"498","Subject234","856","funeral","67","funeral","colorred","test","num1","typesuicide","singlestim","21","120011","100030","edc","paicipantresponsered","correct"
"499","Subject236","787","rejected","77","rejected","colorblue","test","num1","typenegative","singlestim","21","105302","100030","edm","paicipantresponseblue","correct"
"500","Subject237","530","success","67","success","colorred","test","num1","typepositive","singlestim","21","86548","100030","edc","paicipantresponsered","correct"
"501","Subject238","375","rejected","77","rejected","colorblue","test","num1","typenegative","singlestim","21","80281","100030","edm","paicipantresponseblue","correct"
"502","Subject239","508","paper","67","paper","colorred","test","num1","typeneutral","singlestim","21","121671","100030","edc","paicipantresponsered","correct"
"503","Subject240","431","dead","77","dead","colorblue","test","num1","typesuicide","singlestim","21","161676","100030","edm","paicipantresponseblue","correct"
"504","Subject241","396","success","67","success","colorred","test","num1","typepositive","singlestim","21","119050","100030","edc","paicipantresponsered","correct"
"505","Subject242","489","engine","67","engine","colorred","test","num1","typeneutral","singlestim","21","95147","100030","edc","paicipantresponsered","correct"
"506","Subject243","paper","77","paper","colorblue","test","num1","typeneutral","singlestim","21","428209","100030","edm","paicipantresponseblue","correct","381"
"507","Subject244","engine","67","engine","colorred","test","num1","typeneutral","singlestim","21","98705","100030","edc","paicipantresponsered","correct","905"
"508","Subject245","442","pleasure","67","pleasure","colorred","test","num1","typepositive","singlestim","21","86511","100030","edc","paicipantresponsered","correct"
"509","Subject246","pleasure","77","pleasure","colorblue","test","num1","typepositive","singlestim","21","88594","100030","edm","paicipantresponseblue","correct","598"
"510","Subject247","20","183932","11111","edm","paicipantresponseblue","correct","320","desk","67","desk","colorred","practice","num0","typepractice","singlestim"
"511","Subject248","317","rejected","77","rejected","colorblue","test","num1","typenegative","singlestim","21","76327","100030","edm","paicipantresponseblue","correct"
"512","Subject249","384","engine","67","engine","colorred","test","num1","typeneutral","singlestim","21","65752","100030","edc","paicipantresponsered","correct"
"513","Subject250","495","engine","67","engine","colorred","test","num1","typeneutral","singlestim","21","145949","100030","edc","paicipantresponsered","correct"
"514","Subject251","416","stupid","77","stupid","colorblue","test","num1","typenegative","singlestim","21","68743","100030","edm","paicipantresponseblue","correct"
"515","Subject252","468","success","77","success","colorblue","test","num1","typepositive","singlestim","21","91248","100030","edm","paicipantresponseblue","correct"
"516","Subject253","520","museum","67","museum","colorred","test","num1","typeneutral","singlestim","21","98686","100030","edc","paicipantresponsered","correct"
"517","Subject254","315","museum","67","museum","colorred","test","num1","typeneutral","singlestim","21","203661","100030","edc","paicipantresponsered","correct"
"518","Subject255","519","stupid","67","stupid","colorred","test","num1","typenegative","singlestim","21","124146","100030","edc","paicipantresponsered","correct"
"519","Subject256","517","suicide","67","suicide","colorred","test","num1","typesuicide","singlestim","21","125832","100030","edc","paicipantresponsered","correct"
"520","Subject257","558","funeral","67","funeral","colorred","test","num1","typesuicide","singlestim","21","131505","100030","edc","paicipantresponsered","correct"
"521","Subject258","484","alone","67","alone","colorred","test","num1","typenegative","singlestim","21","81733","100030","edc","paicipantresponsered","correct"
"522","Subject259","563","happy","67","happy","colorred","test","num1","typepositive","singlestim","21","66947","100030","edc","paicipantresponsered","correct"
"523","Subject260","604","stupid","67","stupid","colorred","test","num1","typenegative","singlestim","21","70534","100030","edc","paicipantresponsered","correct"
"524","Subject261","422","museum","77","museum","colorblue","test","num1","typeneutral","singlestim","21","88292","100030","edm","paicipantresponseblue","correct"
"525","Subject262","455","rejected","67","rejected","colorred","test","num1","typenegative","singlestim","21","112140","100030","edc","paicipantresponsered","correct"
"526","Subject263","348","alone","77","alone","colorblue","test","num1","typenegative","singlestim","21","93966","100030","edm","paicipantresponseblue","correct"
"527","Subject264","464","pleasure","67","pleasure","colorred","test","num1","typepositive","singlestim","21","64903","100030","edc","paicipantresponsered","correct"
"528","Subject265","67","museum","colorred","test","num1","typeneutral","singlestim","21","300279","100030","edc","paicipantresponsered","correct","598","happy"
"529","Subject266","355","suicide","67","suicide","colorred","test","num1","typesuicide","singlestim","21","63521","100030","edc","paicipantresponsered","correct"
"530","Subject267","623","stupid","67","stupid","colorred","test","num1","typenegative","singlestim","21","75280","100030","edc","paicipantresponsered","correct"
"531","Subject268","445","dead","67","dead","colorred","test","num1","typesuicide","singlestim","21","152331","100030","edc","paicipantresponsered","correct"
"532","Subject269","406","dead","67","dead","colorred","test","num1","typesuicide","singlestim","21","101904","100030","edc","paicipantresponsered","correct"
"533","Subject270","471","museum","67","museum","colorred","test","num1","typeneutral","singlestim","21","168365","100030","edc","paicipantresponsered","correct"
"534","Subject271","582","funeral","77","funeral","colorblue","test","num1","typesuicide","singlestim","21","104341","100030","edm","paicipantresponseblue","correct"
"535","Subject272","377","pleasure","77","pleasure","colorblue","test","num1","typepositive","singlestim","21","83998","100030","edm","paicipantresponseblue","correct"
"536","Subject273","426","museum","77","museum","colorblue","test","num1","typeneutral","singlestim","21","78283","100030","edm","paicipantresponseblue","correct"
"537","Subject274","num1","typenegative","singlestim","21","2745795","100030","edc","paicipantresponsered","correct","473","success","78","success","colorblue","test"
"538","Subject276","392","engine","77","engine","colorblue","test","num1","typeneutral","singlestim","21","63162","100030","edm","paicipantresponseblue","correct"
"539","Subject277","495","dead","77","dead","colorblue","test","num1","typesuicide","singlestim","21","100729","100030","edm","paicipantresponseblue","correct"
"540","Subject278","600","stupid","67","stupid","colorred","test","num1","typenegative","singlestim","21","6617124","100030","edc","paicipantresponsered","correct"
"541","Subject279","417","stupid","77","stupid","colorblue","test","num1","typenegative","singlestim","21","100599","100030","edm","paicipantresponseblue","correct"
"542","Subject280","459","alone","67","alone","colorred","test","num1","typenegative","singlestim","21","87551","100030","edc","paicipantresponsered","correct"
"543","Subject281","singlestim","21","140931","100030","edc","paicipantresponsered","correct","443","engine","77","engine","colorblue","test","num1","typeneutral"
"544","Subject283","420","paper","67","paper","colorred","test","num1","typeneutral","singlestim","21","83137","100030","edc","paicipantresponsered","correct"
"545","Subject284","452","happy","67","happy","colorred","test","num1","typepositive","singlestim","21","92135","100030","edc","paicipantresponsered","correct"
"546","Subject285","rejected","67","rejected","colorred","test","num1","typenegative","singlestim","21","91930","100030","edc","paicipantresponsered","correct","345"
"547","Subject286","662","pleasure","67","pleasure","colorred","test","num1","typepositive","singlestim","21","73188","100030","edc","paicipantresponsered","correct"
"548","Subject287","423","funeral","77","funeral","colorblue","test","num1","typesuicide","singlestim","21","86584","100030","edm","paicipantresponseblue","correct"
"549","Subject288","384","funeral","67","funeral","colorred","test","num1","typesuicide","singlestim","21","94561","100030","edc","paicipantresponsered","correct"
"550","Subject289","345","suicide","77","suicide","colorblue","test","num1","typesuicide","singlestim","21","87820","100030","edm","paicipantresponseblue","correct"
"551","Subject290","643","paper","67","paper","colorred","test","num1","typeneutral","singlestim","21","148292","100030","edc","paicipantresponsered","correct"
"552","Subject291","358","pleasure","77","pleasure","colorblue","test","num1","typepositive","singlestim","21","78499","100030","edm","paicipantresponseblue","correct"
"553","Subject292","427","pleasure","77","pleasure","colorblue","test","num1","typepositive","singlestim","21","101675","100030","edm","paicipantresponseblue","correct"
"554","Subject293","413","engine","67","engine","colorred","test","num1","typeneutral","singlestim","21","104434","100030","edc","paicipantresponsered","correct"
"555","Subject294","631","pleasure","77","pleasure","colorblue","test","num1","typepositive","singlestim","21","72385","100030","edm","paicipantresponseblue","correct"
"556","Subject295","462","rejected","77","rejected","colorblue","test","num1","typenegative","singlestim","21","105019","100030","edm","paicipantresponseblue","correct"
"557","Subject296","562","engine","67","engine","colorred","test","num1","typeneutral","singlestim","21","94592","100030","edc","paicipantresponsered","correct"
"558","Subject297","349","funeral","67","funeral","colorred","test","num1","typesuicide","singlestim","21","104675","100030","edc","paicipantresponsered","correct"
"559","Subject298","311","stupid","77","stupid","colorblue","test","num1","typenegative","singlestim","21","70341","100030","edm","paicipantresponseblue","correct"
"560","Subject299","472","suicide","67","suicide","colorred","test","num1","typesuicide","singlestim","21","83893","100030","edc","paicipantresponsered","correct"
"561","Subject300","472","funeral","67","funeral","colorred","test","num1","typesuicide","singlestim","21","68633","100030","edc","paicipantresponsered","correct"
"562","Subject301","479","stupid","67","stupid","colorred","test","num1","typenegative","singlestim","21","76653","100030","edc","paicipantresponsered","correct"
"563","Subject302","366","suicide","77","suicide","colorblue","test","num1","typesuicide","singlestim","21","74004","100030","edm","paicipantresponseblue","correct"
"564","Subject303","484","paper","67","paper","colorred","test","num1","typeneutral","singlestim","21","92293","100030","edc","paicipantresponsered","correct"
"565","Subject304","293","museum","67","museum","colorred","test","num1","typeneutral","singlestim","21","128733","100030","edc","paicipantresponsered","correct"
"566","Subject305","428","funeral","77","funeral","colorblue","test","num1","typesuicide","singlestim","21","75931","100030","edm","paicipantresponseblue","correct"
"567","Subject306","engine","77","engine","colorblue","test","num1","typeneutral","singlestim","21","173916","100030","edm","paicipantresponseblue","correct","1569"
"568","Subject307","696","alone","67","alone","colorred","test","num1","typenegative","singlestim","21","103550","100030","edc","paicipantresponsered","correct"
"569","Subject308","326","alone","67","alone","colorred","test","num1","typenegative","singlestim","21","93133","100030","edc","paicipantresponsered","correct"
"570","Subject309","success","67","success","colorred","test","num1","typepositive","singlestim","21","102766","100030","edc","paicipantresponsered","correct","946"
"571","Subject310","486","pleasure","67","pleasure","colorred","test","num1","typepositive","singlestim","21","167952","100030","edc","paicipantresponsered","correct"
"572","Subject311","538","museum","67","museum","colorred","test","num1","typeneutral","singlestim","21","71129","100030","edc","paicipantresponsered","correct"
"573","Subject312","515","suicide","77","suicide","colorblue","test","num1","typesuicide","singlestim","21","154471","100030","edm","paicipantresponseblue","correct"
"574","Subject313","engine","67","engine","colorred","test","num1","typeneutral","singlestim","21","115988","100030","edc","paicipantresponsered","correct","416"
"575","Subject314","487","stupid","77","stupid","colorblue","test","num1","typenegative","singlestim","21","86229","100030","edm","paicipantresponseblue","correct"
"576","Subject316","1","museum","colorred","test","num1","typeneutral","singlestim","21","110859","100030","ed","incorrect","1","pleasure","1"
"577","Subject317","301","paper","67","paper","colorred","test","num1","typeneutral","singlestim","21","131016","100030","edc","paicipantresponsered","correct"
"578","Subject318","667","pleasure","67","pleasure","colorred","test","num1","typepositive","singlestim","21","267760","100030","edc","paicipantresponsered","correct"
"579","Subject319","473","suicide","77","suicide","colorblue","test","num1","typesuicide","singlestim","21","140983","100030","edm","paicipantresponseblue","correct"
"580","Subject320","67","engine","colorred","test","num1","typeneutral","singlestim","21","75583","100030","edc","paicipantresponsered","correct","693","happy"
"581","Subject322","470","engine","77","engine","colorblue","test","num1","typeneutral","singlestim","21","106640","100030","edm","paicipantresponseblue","correct"
"582","Subject323","433","museum","77","museum","colorblue","test","num1","typeneutral","singlestim","21","100579","100030","edm","paicipantresponseblue","correct"
"583","Subject324","551","rejected","67","rejected","colorred","test","num1","typenegative","singlestim","21","117048","100030","edc","paicipantresponsered","correct"
"584","Subject325","493","dead","67","dead","colorred","test","num1","typesuicide","singlestim","21","94401","100030","edc","paicipantresponsered","correct"
"585","Subject326","793","dead","77","dead","colorblue","test","num1","typesuicide","singlestim","21","121459","100030","edm","paicipantresponseblue","correct"
"586","Subject327","795","engine","77","engine","colorblue","test","num1","typeneutral","singlestim","21","103690","100030","edm","paicipantresponseblue","correct"
"587","Subject328","535","dead","67","dead","colorred","test","num1","typesuicide","singlestim","21","163049","100030","edc","paicipantresponsered","correct"
"588","Subject329","533","dead","67","dead","colorred","test","num1","typesuicide","singlestim","21","79392","100030","edc","paicipantresponsered","correct"
"589","Subject330","332","suicide","77","suicide","colorblue","test","num1","typesuicide","singlestim","21","178223","100030","edm","paicipantresponseblue","correct"
"590","Subject331","691","rejected","67","rejected","colorred","test","num1","typenegative","singlestim","21","88820","100030","edc","paicipantresponsered","correct"
"591","Subject332","487","happy","67","happy","colorred","test","num1","typepositive","singlestim","21","159268","100030","edc","paicipantresponsered","correct"
"592","Subject333","377","museum","77","museum","colorblue","test","num1","typeneutral","singlestim","21","90258","100030","edm","paicipantresponseblue","correct"
"593","Subject1","433","suicide","67","suicide","colorred","test","num1","typesuicide","singlestim","23","131245","100050","edc","paicipantresponsered","correct"
"594","Subject2","431","alone","77","alone","colorblue","test","num1","typenegative","singlestim","23","86827","100050","edm","paicipantresponseblue","correct"
"595","Subject3","330","engine","77","engine","colorred","test","num1","typeneutral","singlestim","23","415952","100050","edm","paicipantresponseblue","incorrect"
"596","Subject4","661","alone","77","alone","colorblue","test","num1","typenegative","singlestim","23","100525","100050","edm","paicipantresponseblue","correct"
"597","Subject5","676","stupid","67","stupid","colorred","test","num1","typenegative","singlestim","23","82196","100050","edc","paicipantresponsered","correct"
"598","Subject6","428","funeral","67","funeral","colorred","test","num1","typesuicide","singlestim","23","161779","100050","edc","paicipantresponsered","correct"
"599","Subject7","503","success","77","success","colorblue","test","num1","typepositive","singlestim","23","90705","100050","edm","paicipantresponseblue","correct"
"600","Subject8","334","funeral","77","funeral","colorblue","test","num1","typesuicide","singlestim","23","69644","100050","edm","paicipantresponseblue","correct"
"601","Subject9","422","engine","77","engine","colorblue","test","num1","typeneutral","singlestim","23","84372","100050","edm","paicipantresponseblue","correct"
"602","Subject10","alone","67","alone","colorred","test","num1","typenegative","singlestim","23","106136","100050","edc","paicipantresponsered","correct","872"
"603","Subject11","573","suicide","77","suicide","colorblue","test","num1","typesuicide","singlestim","23","151475","100050","edm","paicipantresponseblue","correct"
"604","Subject13","547","engine","77","engine","colorblue","test","num1","typeneutral","singlestim","23","108998","100050","edm","paicipantresponseblue","correct"
"605","Subject14","344","engine","77","engine","colorblue","test","num1","typeneutral","singlestim","23","110184","100050","edm","paicipantresponseblue","correct"
"606","Subject15","357","alone","67","alone","colorred","test","num1","typenegative","singlestim","23","106550","100050","edc","paicipantresponsered","correct"
"607","Subject16","350","alone","67","alone","colorred","test","num1","typenegative","singlestim","23","77511","100050","edc","paicipantresponsered","correct"
"608","Subject17","395","engine","67","engine","colorred","test","num1","typeneutral","singlestim","23","162429","100050","edc","paicipantresponsered","correct"
"609","Subject18","364","dead","67","dead","colorred","test","num1","typesuicide","singlestim","23","98953","100050","edc","paicipantresponsered","correct"
"610","Subject19","470","alone","77","alone","colorblue","test","num1","typenegative","singlestim","23","118616","100050","edm","paicipantresponseblue","correct"
