"","rt","Xstimuluspleasure","keypress","Xword","wordpositionleft","validityvalid","Xblock","blocknum","Xwordtype","trialtype","trialindex","timeelapsed","rt.1","stimulus‚ö√√","keypress.1","dotpositionleft","trialtype.1","trialindex.1","timeelapsed.1","keypressed","participantresponseleft","correctresponse","rt.2","stimulus","keypress.2","blocktrialend","trialtype.2","trialindex.2","timeelapsed.2"
"1","  1","successsuccess"," 1","success","positionleft","validityvalid","test","4","positive","singlestim","51","  73664"," 546","‚Äö√≥√®","67","dotpositionleft","singlestim","52","  74263","c","left","correct","1",NA,"1","trialend","singlestim","53","  75278"
"2","  1","attractionattraction"," 1","attraction","positionright","validityvalid","test","1","positive","singlestim","51","  60890"," 334","‚Äö√≥√®","77","dotpositionright","singlestim","52","  61277","m","right","correct","1",NA,"1","trialend","singlestim","53","  62291"
"3","  1","filthyfilthy"," 1","filthy","positionleft","validityinvalid","test","2","negative","singlestim","51","2515489"," 545","‚Äö√≥√®","77","dotpositionright","singlestim","52","2516085","m","right","correct","1",NA,"1","trialend","singlestim","53","2517096"
"4","  1","ashamedashamed"," 1","ashamed","positionright","validityinvalid","test","4","negative","singlestim","51","  76847"," 455","‚Äö√≥√®","67","dotpositionleft","singlestim","52","  77357","c","left","correct","1",NA,"1","trialend","singlestim","53","  78371"
"5","  1","bloodblood"," 1","blood","positionleft","validityvalid","test","1","suicide","singlestim","51","  79984"," 479","‚Äö√≥√®","67","dotpositionleft","singlestim","52","  80515","c","left","correct","1",NA,"1","trialend","singlestim","53","  81528"
"6","663","statuestatue","77","statue","positionright","validityinvalid","test","1","neutral","singlestim","51","  81363"," 421","‚Äö√≥√®","67","dotpositionleft","singlestim","52","  81837","c","left","correct","1",NA,"1","trialend","singlestim","53","  82861"
"7","  1","pleasurepleasure"," 1","pleasure","positionleft","validityvalid","test","2","positive","singlestim","51"," 100010"," 468","‚Äö√≥√®","67","dotpositionleft","singlestim","52"," 100020","c","left","correct","1",NA,"1","trialend","singlestim","53"," 100030"
"8","  1","smilesmile"," 1","smile","positionleft","validityvalid","test","3","positive","singlestim","51"," 100010"," 481","‚Äö√≥√®","67","dotpositionleft","singlestim","52"," 100020","c","left","correct","1",NA,"1","trialend","singlestim","53"," 100030"
"9","  1","diedie"," 1","die","positionright","validityvalid","test","3","suicide","singlestim","51"," 100010"," 443","‚Äö√≥√®","77","dotpositionright","singlestim","52"," 100020","m","right","correct","1",NA,"1","trialend","singlestim","53"," 100030"
"10","  1","overdoseoverdose"," 1","overdose","positionright","validityinvalid","test","2","suicide","singlestim","51","  64171"," 938","‚Äö√≥√®","67","dotpositionleft","singlestim","52","  65162","c","left","correct","1",NA,"1","trialend","singlestim","53","  66180"
"11","  1","hanginghanging"," 1","hanging","positionleft","validityvalid","test","4","suicide","singlestim","51","  95087"," 471","‚Äö√≥√®","67","dotpositionleft","singlestim","52","  95610","c","left","correct","1",NA,"1","trialend","singlestim","53","  96625"
"12","  1","cheesecheese"," 1","cheese","positionright","validityvalid","test","1","neutral","singlestim","51"," 100010"," 353","‚Äö√≥√®","77","dotpositionright","singlestim","52"," 100020","m","right","correct","1",NA,"1","trialend","singlestim","53"," 100030"
"13","  1","stupidstupid"," 1","stupid","positionleft","validityvalid","test","4","negative","singlestim","51"," 100010"," 902","‚Äö√≥√®","67","dotpositionleft","singlestim","52"," 100020","c","left","correct","1",NA,"1","trialend","singlestim","53"," 100030"
"14","  1","deceaseddeceased"," 1","deceased","positionright","validityvalid","test","4","suicide","singlestim","51"," 100010"," 383","‚Äö√≥√®","77","dotpositionright","singlestim","52"," 100020","m","right","correct","1",NA,"1","trialend","singlestim","53"," 100030"
"15","  1","dyingdying"," 1","dying","positionleft","validityvalid","test","3","suicide","singlestim","51"," 731964"," 447","‚Äö√≥√®","67","dotpositionleft","singlestim","52"," 732462","c","left","correct","1",NA,"1","trialend","singlestim","53"," 733478"
"16","  1","laughlaugh"," 1","laugh","positionright","validityvalid","test","4","positive","singlestim","51","  84328"," 381","‚Äö√≥√®","77","dotpositionright","singlestim","52","  84760","m","right","correct","1",NA,"1","trialend","singlestim","53","  85772"
"17","  1","greengreen"," 1","green","positionright","validityvalid","test","3","neutral","singlestim","51"," 374544"," 416","‚Äö√≥√®","77","dotpositionright","singlestim","52"," 375013","m","right","correct","1",NA,"1","trialend","singlestim","53"," 376024"
"18","  1","deathdeath"," 1","death","positionright","validityvalid","test","2","suicide","singlestim","51","  63631","1479","‚Äö√≥√®","77","dotpositionright","singlestim","52","  65162","m","right","correct","1",NA,"1","trialend","singlestim","53","  66174"
"19","  1","cryingcrying"," 1","crying","positionright","validityvalid","test","1","negative","singlestim","51"," 100010"," 422","‚Äö√≥√®","77","dotpositionright","singlestim","52"," 100020","m","right","correct","1",NA,"1","trialend","singlestim","53"," 100030"
"20","  1","passionatepassionate"," 1","passionate","positionleft","validityinvalid","test","4","positive","singlestim","51"," 100010"," 382","‚Äö√≥√®","77","dotpositionright","singlestim","52"," 100020","m","right","correct","1",NA,"1","trialend","singlestim","53"," 100030"
"21","  1","filthyfilthy"," 1","filthy","positionleft","validityinvalid","test","2","negative","singlestim","51"," 100010"," 405","‚Äö√≥√®","77","dotpositionright","singlestim","52"," 100020","m","right","correct","1",NA,"1","trialend","singlestim","53"," 100030"
"22","  1","pleasurepleasure"," 1","pleasure","positionleft","validityvalid","test","2","positive","singlestim","51"," 460024"," 351","‚Äö√≥√®","67","dotpositionleft","singlestim","52"," 460426","c","left","correct","1",NA,"1","trialend","singlestim","53"," 461440"
"23","  1","passionatepassionate"," 1","passionate","positionleft","validityinvalid","test","4","positive","singlestim","51","  88726"," 323","‚Äö√≥√®","77","dotpositionright","singlestim","52","  89103","m","right","correct","1",NA,"1","trialend","singlestim","53","  90116"
"24","  1","attractionattraction"," 1","attraction","positionright","validityvalid","test","1","positive","singlestim","51"," 100010"," 444","‚Äö√≥√®","77","dotpositionright","singlestim","52"," 100020","m","right","correct","1",NA,"1","trialend","singlestim","53"," 100030"
"25","  1","passionatepassionate"," 1","passionate","positionleft","validityinvalid","test","4","positive","singlestim","51"," 100010"," 354","‚Äö√≥√®","77","dotpositionright","singlestim","52"," 100020","m","right","correct","1",NA,"1","trialend","singlestim","53"," 100030"
"26","  1","laughlaugh"," 1","laugh","positionright","validityvalid","test","4","positive","singlestim","51"," 100010"," 601","‚Äö√≥√®","77","dotpositionright","singlestim","52"," 100020","m","right","correct","1",NA,"1","trialend","singlestim","53"," 100030"
"27","  1","horsehorse"," 1","horse","positionleft","validityinvalid","test","2","neutral","singlestim","51"," 100010"," 686","‚Äö√≥√®","77","dotpositionright","singlestim","52"," 100020","m","right","correct","1",NA,"1","trialend","singlestim","53"," 100030"
"28","  1","abuseabuse"," 1","abuse","positionright","validityvalid","test","2","negative","singlestim","51"," 100010"," 477","‚Äö√≥√®","77","dotpositionright","singlestim","52"," 100020","m","right","correct","1",NA,"1","trialend","singlestim","53"," 100030"
"29","  1","overdoseoverdose"," 1","overdose","positionright","validityinvalid","test","2","suicide","singlestim","51"," 100010"," 364","‚Äö√≥√®","67","dotpositionleft","singlestim","52"," 100020","c","left","correct","1",NA,"1","trialend","singlestim","53"," 100030"
"30","  1","dyingdying"," 1","dying","positionleft","validityvalid","test","3","suicide","singlestim","51","  87206"," 374","‚Äö√≥√®","67","dotpositionleft","singlestim","52","  87632","c","left","correct","1",NA,"1","trialend","singlestim","53","  88646"
"31","  1","suffocationsuffocation"," 1","suffocation","positionleft","validityinvalid","test","1","suicide","singlestim","51"," 140921"," 388","‚Äö√≥√®","77","dotpositionright","singlestim","52"," 141362","m","right","correct","1",NA,"1","trialend","singlestim","53"," 142374"
"32","  1","metermeter"," 1","meter","positionleft","validityvalid","test","3","neutral","singlestim","51","  80316"," 511","‚Äö√≥√®","67","dotpositionleft","singlestim","52","  80879","c","left","correct","1",NA,"1","trialend","singlestim","53","  81895"
"33","  1","pleasurepleasure"," 1","pleasure","positionleft","validityvalid","test","2","positive","singlestim","51"," 100010"," 468","‚Äö√≥√®","67","dotpositionleft","singlestim","52"," 100020","c","left","correct","1",NA,"1","trialend","singlestim","53"," 100030"
"34","  1","smilesmile"," 1","smile","positionleft","validityvalid","test","3","positive","singlestim","51"," 100010"," 481","‚Äö√≥√®","67","dotpositionleft","singlestim","52"," 100020","c","left","correct","1",NA,"1","trialend","singlestim","53"," 100030"
"35","  1","diedie"," 1","die","positionright","validityvalid","test","3","suicide","singlestim","51"," 100010"," 443","‚Äö√≥√®","77","dotpositionright","singlestim","52"," 100020","m","right","correct","1",NA,"1","trialend","singlestim","53"," 100030"
"36","  1","overdoseoverdose"," 1","overdose","positionright","validityinvalid","test","2","suicide","singlestim","51","  64171"," 938","‚Äö√≥√®","67","dotpositionleft","singlestim","52","  65162","c","left","correct","1",NA,"1","trialend","singlestim","53","  66180"
"37","  1","hanginghanging"," 1","hanging","positionleft","validityvalid","test","4","suicide","singlestim","51","  95087"," 471","‚Äö√≥√®","67","dotpositionleft","singlestim","52","  95610","c","left","correct","1",NA,"1","trialend","singlestim","53","  96625"
"38","  1","cheesecheese"," 1","cheese","positionright","validityvalid","test","1","neutral","singlestim","51"," 100010"," 353","‚Äö√≥√®","77","dotpositionright","singlestim","52"," 100020","m","right","correct","1",NA,"1","trialend","singlestim","53"," 100030"
"39","  1","stupidstupid"," 1","stupid","positionleft","validityvalid","test","4","negative","singlestim","51"," 100010"," 902","‚Äö√≥√®","67","dotpositionleft","singlestim","52"," 100020","c","left","correct","1",NA,"1","trialend","singlestim","53"," 100030"
"40","  1","deceaseddeceased"," 1","deceased","positionright","validityvalid","test","4","suicide","singlestim","51"," 100010"," 383","‚Äö√≥√®","77","dotpositionright","singlestim","52"," 100020","m","right","correct","1",NA,"1","trialend","singlestim","53"," 100030"
"41","  1","dyingdying"," 1","dying","positionleft","validityvalid","test","3","suicide","singlestim","51"," 731964"," 447","‚Äö√≥√®","67","dotpositionleft","singlestim","52"," 732462","c","left","correct","1",NA,"1","trialend","singlestim","53"," 733478"
"42","  1","laughlaugh"," 1","laugh","positionright","validityvalid","test","4","positive","singlestim","51","  84328"," 381","‚Äö√≥√®","77","dotpositionright","singlestim","52","  84760","m","right","correct","1",NA,"1","trialend","singlestim","53","  85772"
"43","  1","greengreen"," 1","green","positionright","validityvalid","test","3","neutral","singlestim","51"," 374544"," 416","‚Äö√≥√®","77","dotpositionright","singlestim","52"," 375013","m","right","correct","1",NA,"1","trialend","singlestim","53"," 376024"
"44","  1","structurestructure"," 1","structure","positionright","validityvalid","test","4","neutral","singlestim","55","  77286","340","‚Äö√≥√®","77","dotpositionright","singlestim","56","  77678","m","right","correct","  1",NA," 1","trialend","singlestim","57","  78694"
"45","  1","bloodblood"," 1","blood","positionleft","validityvalid","test","1","suicide","singlestim","55","  64295","398","‚Äö√≥√®","67","dotpositionleft","singlestim","56","  64745","c","left","correct","  1",NA," 1","trialend","singlestim","57","  65759"
"46","  1","paperpaper"," 1","paper","positionleft","validityvalid","test","2","neutral","singlestim","55","2519099","467","‚Äö√≥√®","67","dotpositionleft","singlestim","56","2519617","c","left","correct","  1",NA," 1","trialend","singlestim","57","2520629"
"47","  1","passionatepassionate"," 1","passionate","positionleft","validityinvalid","test","4","positive","singlestim","55","  80378","332","‚Äö√≥√®","77","dotpositionright","singlestim","56","  80765","m","right","correct","  1",NA," 1","trialend","singlestim","57","  81779"
"48","  1","suffocationsuffocation"," 1","suffocation","positionleft","validityinvalid","test","1","suicide","singlestim","55","  83534","486","‚Äö√≥√®","77","dotpositionright","singlestim","56","  84073","m","right","correct","  1",NA," 1","trialend","singlestim","57","  85087"
"49","753","hatehate","77","hate","positionright","validityinvalid","test","1","negative","singlestim","55","  84880","277","‚Äö√≥√®","67","dotpositionleft","singlestim","56","  85210","c","left","correct","  1",NA," 1","trialend","singlestim","57","  86233"
"50","  1","paperpaper"," 1","paper","positionleft","validityvalid","test","2","neutral","singlestim","55"," 100050","396","‚Äö√≥√®","67","dotpositionleft","singlestim","56"," 100060","c","left","correct","  1",NA," 1","trialend","singlestim","57"," 100070"
"51","  1","greengreen"," 1","green","positionright","validityvalid","test","3","neutral","singlestim","55"," 100050","348","‚Äö√≥√®","77","dotpositionright","singlestim","56"," 100060","m","right","correct","  1",NA," 1","trialend","singlestim","57"," 100070"
"52","  1","greengreen"," 1","green","positionright","validityvalid","test","3","neutral","singlestim","55"," 100050","  1","‚Äö√≥√®"," 1","dotpositionright","singlestim","56"," 100060","","","incorrect","521",NA,"77","trialend","singlestim","57"," 119210"
"53","  1","failurefailure"," 1","failure","positionleft","validityvalid","test","2","negative","singlestim","55","  68186","707","‚Äö√≥√®","67","dotpositionleft","singlestim","56","  68945","c","left","correct","  1",NA," 1","trialend","singlestim","57","  69959"
"54","  1","laughlaugh"," 1","laugh","positionright","validityvalid","test","4","positive","singlestim","55","  98634","399","‚Äö√≥√®","77","dotpositionright","singlestim","56","  99086","m","right","correct","  1",NA," 1","trialend","singlestim","57"," 100101"
"55","  1","imageimage"," 1","image","positionleft","validityvalid","test","1","neutral","singlestim","55"," 100050","628","‚Äö√≥√®","67","dotpositionleft","singlestim","56"," 100060","c","left","correct","  1",NA," 1","trialend","singlestim","57"," 100070"
"56","  1","hanginghanging"," 1","hanging","positionleft","validityvalid","test","4","suicide","singlestim","55"," 100050","623","‚Äö√≥√®","67","dotpositionleft","singlestim","56"," 100060","c","left","correct","  1",NA," 1","trialend","singlestim","57"," 100070"
"57","  1","structurestructure"," 1","structure","positionright","validityvalid","test","4","neutral","singlestim","55"," 100050","369","‚Äö√≥√®","77","dotpositionright","singlestim","56"," 100060","m","right","correct","  1",NA," 1","trialend","singlestim","57"," 100070"
"58","  1","greengreen"," 1","green","positionright","validityvalid","test","3","neutral","singlestim","55"," 735486","530","‚Äö√≥√®","77","dotpositionright","singlestim","56"," 736070","m","right","correct","  1",NA," 1","trialend","singlestim","57"," 737088"
"59","  1","ashamedashamed"," 1","ashamed","positionright","validityinvalid","test","4","negative","singlestim","55","  87774","360","‚Äö√≥√®","67","dotpositionleft","singlestim","56","  88187","c","left","correct","  1",NA," 1","trialend","singlestim","57","  89198"
"60","  1","cuttingcutting"," 1","cutting","positionright","validityvalid","test","3","suicide","singlestim","55"," 378027","395","‚Äö√≥√®","77","dotpositionright","singlestim","56"," 378474","m","right","correct","  1",NA," 1","trialend","singlestim","57"," 379487"
"61","  1","corpsecorpse"," 1","corpse","positionleft","validityvalid","test","2","suicide","singlestim","55","  68178","420","‚Äö√≥√®","67","dotpositionleft","singlestim","56","  68651","c","left","correct","  1",NA," 1","trialend","singlestim","57","  69663"
"62","  1","patheticpathetic"," 1","pathetic","positionleft","validityvalid","test","1","negative","singlestim","55"," 100050","428","‚Äö√≥√®","67","dotpositionleft","singlestim","56"," 100060","c","left","correct","  1",NA," 1","trialend","singlestim","57"," 100070"
"63","  1","deceaseddeceased"," 1","deceased","positionright","validityvalid","test","4","suicide","singlestim","55"," 100050","393","‚Äö√≥√®","77","dotpositionright","singlestim","56"," 100060","m","right","correct","  1",NA," 1","trialend","singlestim","57"," 100070"
"64","  1","lovelove"," 1","love","positionright","validityinvalid","test","2","positive","singlestim","55"," 100050","322","‚Äö√≥√®","67","dotpositionleft","singlestim","56"," 100060","c","left","correct","  1",NA," 1","trialend","singlestim","57"," 100070"
"65","  1","tabletable"," 1","table","positionright","validityvalid","test","2","neutral","singlestim","55"," 463445","340","‚Äö√≥√®","77","dotpositionright","singlestim","56"," 463838","m","right","correct","  1",NA," 1","trialend","singlestim","57"," 464850"
"66","  1","doubledouble"," 1","double","positionright","validityvalid","test","4","neutral","singlestim","55","  92121","369","‚Äö√≥√®","77","dotpositionright","singlestim","56","  92542","m","right","correct","  1",NA," 1","trialend","singlestim","57","  93555"
"67","  1","cryingcrying"," 1","crying","positionright","validityvalid","test","1","negative","singlestim","55"," 100050","416","‚Äö√≥√®","77","dotpositionright","singlestim","56"," 100060","m","right","correct","  1",NA," 1","trialend","singlestim","57"," 100070"
"68","  1","deceaseddeceased"," 1","deceased","positionright","validityvalid","test","4","suicide","singlestim","55"," 100050","408","‚Äö√≥√®","77","dotpositionright","singlestim","56"," 100060","m","right","correct","  1",NA," 1","trialend","singlestim","57"," 100070"
"69","  1","ashamedashamed"," 1","ashamed","positionright","validityinvalid","test","4","negative","singlestim","55"," 100050","374","‚Äö√≥√®","67","dotpositionleft","singlestim","56"," 100060","c","left","correct","  1",NA," 1","trialend","singlestim","57"," 100070"
"70","  1","pleasurepleasure"," 1","pleasure","positionleft","validityvalid","test","2","positive","singlestim","55"," 100050","683","‚Äö√≥√®","67","dotpositionleft","singlestim","56"," 100060","c","left","correct","  1",NA," 1","trialend","singlestim","57"," 100070"
"71","  1","enthusiasmenthusiasm"," 1","enthusiasm","positionright","validityvalid","test","2","positive","singlestim","55"," 100050","415","‚Äö√≥√®","77","dotpositionright","singlestim","56"," 100060","m","right","correct","  1",NA," 1","trialend","singlestim","57"," 100070"
"72","414","paperpaper","67","paper","positionleft","validityvalid","test","2","neutral","singlestim","55"," 100050","387","‚Äö√≥√®","67","dotpositionleft","singlestim","56"," 100060","c","left","correct","  1",NA," 1","trialend","singlestim","57"," 100070"
"73","  1","cuttingcutting"," 1","cutting","positionright","validityvalid","test","3","suicide","singlestim","55","  90651","558","‚Äö√≥√®","77","dotpositionright","singlestim","56","  91262","m","right","correct","  1",NA," 1","trialend","singlestim","57","  92275"
"74","  1","attractionattraction"," 1","attraction","positionright","validityvalid","test","1","positive","singlestim","55"," 144377","372","‚Äö√≥√®","77","dotpositionright","singlestim","56"," 144801","m","right","correct","  1",NA," 1","trialend","singlestim","57"," 145812"
"75","  1","museummuseum"," 1","museum","positionleft","validityvalid","test","3","neutral","singlestim","55","  83903","366","‚Äö√≥√®","67","dotpositionleft","singlestim","56","  84320","c","left","correct","  1",NA," 1","trialend","singlestim","57","  85336"
"76","  1","paperpaper"," 1","paper","positionleft","validityvalid","test","2","neutral","singlestim","55"," 100050","396","‚Äö√≥√®","67","dotpositionleft","singlestim","56"," 100060","c","left","correct","  1",NA," 1","trialend","singlestim","57"," 100070"
"77","  1","greengreen"," 1","green","positionright","validityvalid","test","3","neutral","singlestim","55"," 100050","348","‚Äö√≥√®","77","dotpositionright","singlestim","56"," 100060","m","right","correct","  1",NA," 1","trialend","singlestim","57"," 100070"
"78","  1","greengreen"," 1","green","positionright","validityvalid","test","3","neutral","singlestim","55"," 100050","  1","‚Äö√≥√®"," 1","dotpositionright","singlestim","56"," 100060","","","incorrect","521",NA,"77","trialend","singlestim","57"," 119210"
"79","  1","failurefailure"," 1","failure","positionleft","validityvalid","test","2","negative","singlestim","55","  68186","707","‚Äö√≥√®","67","dotpositionleft","singlestim","56","  68945","c","left","correct","  1",NA," 1","trialend","singlestim","57","  69959"
"80","  1","laughlaugh"," 1","laugh","positionright","validityvalid","test","4","positive","singlestim","55","  98634","399","‚Äö√≥√®","77","dotpositionright","singlestim","56","  99086","m","right","correct","  1",NA," 1","trialend","singlestim","57"," 100101"
"81","  1","imageimage"," 1","image","positionleft","validityvalid","test","1","neutral","singlestim","55"," 100050","628","‚Äö√≥√®","67","dotpositionleft","singlestim","56"," 100060","c","left","correct","  1",NA," 1","trialend","singlestim","57"," 100070"
"82","  1","hanginghanging"," 1","hanging","positionleft","validityvalid","test","4","suicide","singlestim","55"," 100050","623","‚Äö√≥√®","67","dotpositionleft","singlestim","56"," 100060","c","left","correct","  1",NA," 1","trialend","singlestim","57"," 100070"
"83","  1","structurestructure"," 1","structure","positionright","validityvalid","test","4","neutral","singlestim","55"," 100050","369","‚Äö√≥√®","77","dotpositionright","singlestim","56"," 100060","m","right","correct","  1",NA," 1","trialend","singlestim","57"," 100070"
"84","  1","greengreen"," 1","green","positionright","validityvalid","test","3","neutral","singlestim","55"," 735486","530","‚Äö√≥√®","77","dotpositionright","singlestim","56"," 736070","m","right","correct","  1",NA," 1","trialend","singlestim","57"," 737088"
"85","  1","ashamedashamed"," 1","ashamed","positionright","validityinvalid","test","4","negative","singlestim","55","  87774","360","‚Äö√≥√®","67","dotpositionleft","singlestim","56","  88187","c","left","correct","  1",NA," 1","trialend","singlestim","57","  89198"
"86","  1","cuttingcutting"," 1","cutting","positionright","validityvalid","test","3","suicide","singlestim","55"," 378027","395","‚Äö√≥√®","77","dotpositionright","singlestim","56"," 378474","m","right","correct","  1",NA," 1","trialend","singlestim","57"," 379487"
"87","  1","killingkilling"," 1","killing","positionleft","validityvalid","test","4","suicide","singlestim","59","  80704","664","‚Äö√≥√®","67","dotpositionleft","singlestim","60","  81421","c","left","correct","1",NA,"1","trialend","singlestim","61","  82436"
"88","  1","suffocationsuffocation"," 1","suffocation","positionleft","validityinvalid","test","1","suicide","singlestim","59","  67764","378","‚Äö√≥√®","77","dotpositionright","singlestim","60","  68194","m","right","correct","1",NA,"1","trialend","singlestim","61","  69207"
"89","  1","horsehorse"," 1","horse","positionleft","validityinvalid","test","2","neutral","singlestim","59","2522631","451","‚Äö√≥√®","77","dotpositionright","singlestim","60","2523133","m","right","correct","1",NA,"1","trialend","singlestim","61","2524147"
"90","  1","laughlaugh"," 1","laugh","positionright","validityvalid","test","4","positive","singlestim","59","  83787","510","‚Äö√≥√®","77","dotpositionright","singlestim","60","  84349","m","right","correct","1",NA,"1","trialend","singlestim","61","  85365"
"91","  1","foldedfolded"," 1","folded","positionleft","validityvalid","test","1","neutral","singlestim","59","  87092","449","‚Äö√≥√®","67","dotpositionleft","singlestim","60","  87594","c","left","correct","1",NA,"1","trialend","singlestim","61","  88609"
"92","616","greatgreat","77","great","positionright","validityvalid","test","1","positive","singlestim","59","  88250","364","‚Äö√≥√®","77","dotpositionright","singlestim","60","  88666","m","right","correct","1",NA,"1","trialend","singlestim","61","  89686"
"93","  1","overdoseoverdose"," 1","overdose","positionright","validityinvalid","test","2","suicide","singlestim","59"," 100090","601","‚Äö√≥√®","67","dotpositionleft","singlestim","60","1000100","c","left","correct","1",NA,"1","trialend","singlestim","61","1000110"
"94","  1","dyingdying"," 1","dying","positionleft","validityvalid","test","3","suicide","singlestim","59"," 100090","396","‚Äö√≥√®","67","dotpositionleft","singlestim","60","1000100","c","left","correct","1",NA,"1","trialend","singlestim","61","1000110"
"95","  1","smilesmile"," 1","smile","positionleft","validityvalid","test","3","positive","singlestim","59"," 121215","623","‚Äö√≥√®","67","dotpositionleft","singlestim","60"," 121890","c","left","correct","1",NA,"1","trialend","singlestim","61"," 122903"
"96","  1","foamfoam"," 1","foam","positionright","validityvalid","test","2","neutral","singlestim","59","  71967","648","‚Äö√≥√®","77","dotpositionright","singlestim","60","  72668","m","right","correct","1",NA,"1","trialend","singlestim","61","  73687"
"97","  1","ashamedashamed"," 1","ashamed","positionright","validityinvalid","test","4","negative","singlestim","59"," 102106","830","‚Äö√≥√®","67","dotpositionleft","singlestim","60"," 102990","c","left","correct","1",NA,"1","trialend","singlestim","61"," 104007"
"98","  1","bloodblood"," 1","blood","positionleft","validityvalid","test","1","suicide","singlestim","59"," 100090","442","‚Äö√≥√®","67","dotpositionleft","singlestim","60","1000100","c","left","correct","1",NA,"1","trialend","singlestim","61","1000110"
"99","  1","passionatepassionate"," 1","passionate","positionleft","validityinvalid","test","4","positive","singlestim","59"," 100090","625","‚Äö√≥√®","77","dotpositionright","singlestim","60","1000100","m","right","correct","1",NA,"1","trialend","singlestim","61","1000110"
"100","  1","laughlaugh"," 1","laugh","positionright","validityvalid","test","4","positive","singlestim","59"," 100090","646","‚Äö√≥√®","77","dotpositionright","singlestim","60","1000100","m","right","correct","1",NA,"1","trialend","singlestim","61","1000110"
"101","  1","museummuseum"," 1","museum","positionleft","validityvalid","test","3","neutral","singlestim","59"," 739096","603","‚Äö√≥√®","67","dotpositionleft","singlestim","60"," 739752","c","left","correct","1",NA,"1","trialend","singlestim","61"," 740768"
"102","  1","stupidstupid"," 1","stupid","positionleft","validityvalid","test","4","negative","singlestim","59","  91202","360","‚Äö√≥√®","67","dotpositionleft","singlestim","60","  91613","c","left","correct","1",NA,"1","trialend","singlestim","61","  92625"
"103","  1","dyingdying"," 1","dying","positionleft","validityvalid","test","3","suicide","singlestim","59"," 381491","489","‚Äö√≥√®","67","dotpositionleft","singlestim","60"," 382032","c","left","correct","1",NA,"1","trialend","singlestim","61"," 383045"
"104","  1","foamfoam"," 1","foam","positionright","validityvalid","test","2","neutral","singlestim","59","  71666","562","‚Äö√≥√®","77","dotpositionright","singlestim","60","  72280","m","right","correct","1",NA,"1","trialend","singlestim","61","  73293"
"105","  1","suffocationsuffocation"," 1","suffocation","positionleft","validityinvalid","test","1","suicide","singlestim","59"," 100090","383","‚Äö√≥√®","77","dotpositionright","singlestim","60","1000100","m","right","correct","1",NA,"1","trialend","singlestim","61","1000110"
"106","  1","wohlesswohless"," 1","wohless","positionright","validityvalid","test","4","negative","singlestim","59"," 100090","354","‚Äö√≥√®","77","dotpositionright","singlestim","60","1000100","m","right","correct","1",NA,"1","trialend","singlestim","61","1000110"
"107","  1","tabletable"," 1","table","positionright","validityvalid","test","2","neutral","singlestim","59"," 100090","370","‚Äö√≥√®","77","dotpositionright","singlestim","60","1000100","m","right","correct","1",NA,"1","trialend","singlestim","61","1000110"
"108","  1","failurefailure"," 1","failure","positionleft","validityvalid","test","2","negative","singlestim","59"," 466853","332","‚Äö√≥√®","67","dotpositionleft","singlestim","60"," 467238","c","left","correct","1",NA,"1","trialend","singlestim","61"," 468249"
"109","  1","laughlaugh"," 1","laugh","positionright","validityvalid","test","4","positive","singlestim","59","  95561","385","‚Äö√≥√®","77","dotpositionright","singlestim","60","  95999","m","right","correct","1",NA,"1","trialend","singlestim","61","  97012"
"110","  1","vomitvomit"," 1","vomit","positionleft","validityvalid","test","1","negative","singlestim","59"," 100090","456","‚Äö√≥√®","67","dotpositionleft","singlestim","60","1000100","c","left","correct","1",NA,"1","trialend","singlestim","61","1000110"
"111","  1","wohlesswohless"," 1","wohless","positionright","validityvalid","test","4","negative","singlestim","59"," 100090","525","‚Äö√≥√®","77","dotpositionright","singlestim","60","1000100","m","right","correct","1",NA,"1","trialend","singlestim","61","1000110"
"112","  1","hanginghanging"," 1","hanging","positionleft","validityvalid","test","4","suicide","singlestim","59"," 100090","613","‚Äö√≥√®","67","dotpositionleft","singlestim","60","1000100","c","left","correct","1",NA,"1","trialend","singlestim","61","1000110"
"113","  1","foamfoam"," 1","foam","positionright","validityvalid","test","2","neutral","singlestim","59"," 100090","488","‚Äö√≥√®","77","dotpositionright","singlestim","60","1000100","m","right","correct","1",NA,"1","trialend","singlestim","61","1000110"
"114","  1","deathdeath"," 1","death","positionright","validityvalid","test","2","suicide","singlestim","59"," 100090","389","‚Äö√≥√®","77","dotpositionright","singlestim","60","1000100","m","right","correct","1",NA,"1","trialend","singlestim","61","1000110"
"115","  1","cruelcruel"," 1","cruel","positionright","validityvalid","test","2","negative","singlestim","59"," 100090","446","‚Äö√≥√®","77","dotpositionright","singlestim","60","1000100","m","right","correct","1",NA,"1","trialend","singlestim","61","1000110"
"116","  1","deaddead"," 1","dead","positionleft","validityinvalid","test","3","suicide","singlestim","59","  94280","364","‚Äö√≥√®","77","dotpositionright","singlestim","60","  94698","m","right","correct","1",NA,"1","trialend","singlestim","61","  95712"
"117","  1","hatehate"," 1","hate","positionright","validityinvalid","test","1","negative","singlestim","59"," 147816","362","‚Äö√≥√®","67","dotpositionleft","singlestim","60"," 148229","c","left","correct","1",NA,"1","trialend","singlestim","61"," 149242"
"118","  1","cuttingcutting"," 1","cutting","positionright","validityvalid","test","3","suicide","singlestim","59","  87344","396","‚Äö√≥√®","77","dotpositionright","singlestim","60","  87794","m","right","correct","1",NA,"1","trialend","singlestim","61","  88812"
"119","  1","overdoseoverdose"," 1","overdose","positionright","validityinvalid","test","2","suicide","singlestim","59"," 100090","601","‚Äö√≥√®","67","dotpositionleft","singlestim","60","1000100","c","left","correct","1",NA,"1","trialend","singlestim","61","1000110"
"120","  1","dyingdying"," 1","dying","positionleft","validityvalid","test","3","suicide","singlestim","59"," 100090","396","‚Äö√≥√®","67","dotpositionleft","singlestim","60","1000100","c","left","correct","1",NA,"1","trialend","singlestim","61","1000110"
"121","  1","smilesmile"," 1","smile","positionleft","validityvalid","test","3","positive","singlestim","59"," 121215","623","‚Äö√≥√®","67","dotpositionleft","singlestim","60"," 121890","c","left","correct","1",NA,"1","trialend","singlestim","61"," 122903"
"122","  1","foamfoam"," 1","foam","positionright","validityvalid","test","2","neutral","singlestim","59","  71967","648","‚Äö√≥√®","77","dotpositionright","singlestim","60","  72668","m","right","correct","1",NA,"1","trialend","singlestim","61","  73687"
"123","  1","ashamedashamed"," 1","ashamed","positionright","validityinvalid","test","4","negative","singlestim","59"," 102106","830","‚Äö√≥√®","67","dotpositionleft","singlestim","60"," 102990","c","left","correct","1",NA,"1","trialend","singlestim","61"," 104007"
"124","  1","bloodblood"," 1","blood","positionleft","validityvalid","test","1","suicide","singlestim","59"," 100090","442","‚Äö√≥√®","67","dotpositionleft","singlestim","60","1000100","c","left","correct","1",NA,"1","trialend","singlestim","61","1000110"
"125","  1","passionatepassionate"," 1","passionate","positionleft","validityinvalid","test","4","positive","singlestim","59"," 100090","625","‚Äö√≥√®","77","dotpositionright","singlestim","60","1000100","m","right","correct","1",NA,"1","trialend","singlestim","61","1000110"
"126","  1","laughlaugh"," 1","laugh","positionright","validityvalid","test","4","positive","singlestim","59"," 100090","646","‚Äö√≥√®","77","dotpositionright","singlestim","60","1000100","m","right","correct","1",NA,"1","trialend","singlestim","61","1000110"
"127","  1","museummuseum"," 1","museum","positionleft","validityvalid","test","3","neutral","singlestim","59"," 739096","603","‚Äö√≥√®","67","dotpositionleft","singlestim","60"," 739752","c","left","correct","1",NA,"1","trialend","singlestim","61"," 740768"
"128","  1","stupidstupid"," 1","stupid","positionleft","validityvalid","test","4","negative","singlestim","59","  91202","360","‚Äö√≥√®","67","dotpositionleft","singlestim","60","  91613","c","left","correct","1",NA,"1","trialend","singlestim","61","  92625"
"129","  1","dyingdying"," 1","dying","positionleft","validityvalid","test","3","suicide","singlestim","59"," 381491","489","‚Äö√≥√®","67","dotpositionleft","singlestim","60"," 382032","c","left","correct","1",NA,"1","trialend","singlestim","61"," 383045"
"130","  1","deceaseddeceased"," 1","deceased","positionright","validityvalid","test","4","suicide","singlestim","63","  84442","648","‚Äö√≥√®","77","dotpositionright","singlestim","64","  85142","m","right","correct","1",NA,"1","trialend","singlestim","65","  86158"
"131","  1","imageimage"," 1","image","positionleft","validityvalid","test","1","neutral","singlestim","63","  71212","422","‚Äö√≥√®","67","dotpositionleft","singlestim","64","  71686","c","left","correct","1",NA,"1","trialend","singlestim","65","  72699"
"132","  1","corpsecorpse"," 1","corpse","positionleft","validityvalid","test","2","suicide","singlestim","63","2526151","521","‚Äö√≥√®","67","dotpositionleft","singlestim","64","2526726","c","left","correct","1",NA,"1","trialend","singlestim","65","2527740"
"133","  1","ecstaticecstatic"," 1","ecstatic","positionright","validityvalid","test","4","positive","singlestim","63","  87372","424","‚Äö√≥√®","77","dotpositionright","singlestim","64","  87850","m","right","correct","1",NA,"1","trialend","singlestim","65","  88865"
"134","  1","imageimage"," 1","image","positionleft","validityvalid","test","1","neutral","singlestim","63","  90615","407","‚Äö√≥√®","67","dotpositionleft","singlestim","64","  91075","c","left","correct","1",NA,"1","trialend","singlestim","65","  92089"
"135","  1","bloodblood"," 1","blood","positionleft","validityvalid","test","1","suicide","singlestim","63","  91706","444","‚Äö√≥√®","67","dotpositionleft","singlestim","64","  92202","c","left","correct","1",NA,"1","trialend","singlestim","65","  93224"
"136","  1","enthusiasmenthusiasm"," 1","enthusiasm","positionright","validityvalid","test","2","positive","singlestim","63","1000130","334","‚Äö√≥√®","77","dotpositionright","singlestim","64","1000140","m","right","correct","1",NA,"1","trialend","singlestim","65","1000150"
"137","  1","touretoure"," 1","toure","positionleft","validityvalid","test","3","negative","singlestim","63","1000130","362","‚Äö√≥√®","67","dotpositionleft","singlestim","64","1000140","c","left","correct","1",NA,"1","trialend","singlestim","65","1000150"
"138","  1","dyingdying"," 1","dying","positionleft","validityvalid","test","3","suicide","singlestim","63"," 124907","503","‚Äö√≥√®","67","dotpositionleft","singlestim","64"," 125461","c","left","correct","1",NA,"1","trialend","singlestim","65"," 126474"
"139","  1","cruelcruel"," 1","cruel","positionright","validityvalid","test","2","negative","singlestim","63","  75696","610","‚Äö√≥√®","77","dotpositionright","singlestim","64","  76358","m","right","correct","1",NA,"1","trialend","singlestim","65","  77377"
"140","  1","successsuccess"," 1","success","positionleft","validityvalid","test","4","positive","singlestim","63"," 106010","592","‚Äö√≥√®","67","dotpositionleft","singlestim","64"," 106658","c","left","correct","1",NA,"1","trialend","singlestim","65"," 107670"
"141","  1","vomitvomit"," 1","vomit","positionleft","validityvalid","test","1","negative","singlestim","63","1000130","412","‚Äö√≥√®","67","dotpositionleft","singlestim","64","1000140","c","left","correct","1",NA,"1","trialend","singlestim","65","1000150"
"142","  1","doubledouble"," 1","double","positionright","validityvalid","test","4","neutral","singlestim","63","1000130","591","‚Äö√≥√®","77","dotpositionright","singlestim","64","1000140","m","right","correct","1",NA,"1","trialend","singlestim","65","1000150"
"143","425","successsuccess","67","success","positionleft","validityvalid","test","4","positive","singlestim","63","1000130","479","‚Äö√≥√®","67","dotpositionleft","singlestim","64","1000140","c","left","correct","1",NA,"1","trialend","singlestim","65","1000150"
"144","  1","metermeter"," 1","meter","positionleft","validityvalid","test","3","neutral","singlestim","63"," 742777","668","‚Äö√≥√®","67","dotpositionleft","singlestim","64"," 743496","c","left","correct","1",NA,"1","trialend","singlestim","65"," 744513"
"145","  1","successsuccess"," 1","success","positionleft","validityvalid","test","4","positive","singlestim","63","  94628","360","‚Äö√≥√®","67","dotpositionleft","singlestim","64","  95039","c","left","correct","1",NA,"1","trialend","singlestim","65","  96052"
"146","  1","strongstrong"," 1","strong","positionleft","validityvalid","test","3","positive","singlestim","63"," 385048","403","‚Äö√≥√®","67","dotpositionleft","singlestim","64"," 385504","c","left","correct","1",NA,"1","trialend","singlestim","65"," 386516"
"147","  1","noosenoose"," 1","noose","positionleft","validityvalid","test","2","suicide","singlestim","63","  75297","491","‚Äö√≥√®","67","dotpositionleft","singlestim","64","  75841","c","left","correct","1",NA,"1","trialend","singlestim","65","  76854"
"148","  1","vomitvomit"," 1","vomit","positionleft","validityvalid","test","1","negative","singlestim","63","1000130","294","‚Äö√≥√®","67","dotpositionleft","singlestim","64","1000140","c","left","correct","1",NA,"1","trialend","singlestim","65","1000150"
"149","  1","killingkilling"," 1","killing","positionleft","validityvalid","test","4","suicide","singlestim","63","1000130","298","‚Äö√≥√®","67","dotpositionleft","singlestim","64","1000140","c","left","correct","1",NA,"1","trialend","singlestim","65","1000150"
"150","  1","abuseabuse"," 1","abuse","positionright","validityvalid","test","2","negative","singlestim","63","1000130","375","‚Äö√≥√®","77","dotpositionright","singlestim","64","1000140","m","right","correct","1",NA,"1","trialend","singlestim","65","1000150"
"151","  1","lovelove"," 1","love","positionright","validityinvalid","test","2","positive","singlestim","63"," 470255","369","‚Äö√≥√®","67","dotpositionleft","singlestim","64"," 470675","c","left","correct","1",NA,"1","trialend","singlestim","65"," 471689"
"152","  1","structurestructure"," 1","structure","positionright","validityvalid","test","4","neutral","singlestim","63","  99017","362","‚Äö√≥√®","77","dotpositionright","singlestim","64","  99430","m","right","correct","1",NA,"1","trialend","singlestim","65"," 100445"
"153","  1","cheesecheese"," 1","cheese","positionright","validityvalid","test","1","neutral","singlestim","63","1000130","362","‚Äö√≥√®","77","dotpositionright","singlestim","64","1000140","m","right","correct","1",NA,"1","trialend","singlestim","65","1000150"
"154","  1","hanginghanging"," 1","hanging","positionleft","validityvalid","test","4","suicide","singlestim","63","1000130","381","‚Äö√≥√®","67","dotpositionleft","singlestim","64","1000140","c","left","correct","1",NA,"1","trialend","singlestim","65","1000150"
"155","  1","doubledouble"," 1","double","positionright","validityvalid","test","4","neutral","singlestim","63","1000130","478","‚Äö√≥√®","77","dotpositionright","singlestim","64","1000140","m","right","correct","1",NA,"1","trialend","singlestim","65","1000150"
"156","  1","enthusiasmenthusiasm"," 1","enthusiasm","positionright","validityvalid","test","2","positive","singlestim","63","1000130","374","‚Äö√≥√®","77","dotpositionright","singlestim","64","1000140","m","right","correct","1",NA,"1","trialend","singlestim","65","1000150"
"157","  1","foamfoam"," 1","foam","positionright","validityvalid","test","2","neutral","singlestim","63","1000130","386","‚Äö√≥√®","77","dotpositionright","singlestim","64","1000140","m","right","correct","1",NA,"1","trialend","singlestim","65","1000150"
"158","  1","pleasurepleasure"," 1","pleasure","positionleft","validityvalid","test","2","positive","singlestim","63","1000130","389","‚Äö√≥√®","67","dotpositionleft","singlestim","64","1000140","c","left","correct","1",NA,"1","trialend","singlestim","65","1000150"
"159","  1","touretoure"," 1","toure","positionleft","validityvalid","test","3","negative","singlestim","63","  97717","436","‚Äö√≥√®","67","dotpositionleft","singlestim","64","  98205","c","left","correct","1",NA,"1","trialend","singlestim","65","  99219"
"160","  1","gunshotgunshot"," 1","gunshot","positionright","validityvalid","test","1","suicide","singlestim","63"," 151244","333","‚Äö√≥√®","77","dotpositionright","singlestim","64"," 151629","m","right","correct","1",NA,"1","trialend","singlestim","65"," 152641"
"161","  1","strongstrong"," 1","strong","positionleft","validityvalid","test","3","positive","singlestim","63","  90821","341","‚Äö√≥√®","67","dotpositionleft","singlestim","64","  91214","c","left","correct","1",NA,"1","trialend","singlestim","65","  92232"
"162","  1","enthusiasmenthusiasm"," 1","enthusiasm","positionright","validityvalid","test","2","positive","singlestim","63","1000130","334","‚Äö√≥√®","77","dotpositionright","singlestim","64","1000140","m","right","correct","1",NA,"1","trialend","singlestim","65","1000150"
"163","  1","touretoure"," 1","toure","positionleft","validityvalid","test","3","negative","singlestim","63","1000130","362","‚Äö√≥√®","67","dotpositionleft","singlestim","64","1000140","c","left","correct","1",NA,"1","trialend","singlestim","65","1000150"
"164","  1","dyingdying"," 1","dying","positionleft","validityvalid","test","3","suicide","singlestim","63"," 124907","503","‚Äö√≥√®","67","dotpositionleft","singlestim","64"," 125461","c","left","correct","1",NA,"1","trialend","singlestim","65"," 126474"
"165","  1","cruelcruel"," 1","cruel","positionright","validityvalid","test","2","negative","singlestim","63","  75696","610","‚Äö√≥√®","77","dotpositionright","singlestim","64","  76358","m","right","correct","1",NA,"1","trialend","singlestim","65","  77377"
"166","  1","successsuccess"," 1","success","positionleft","validityvalid","test","4","positive","singlestim","63"," 106010","592","‚Äö√≥√®","67","dotpositionleft","singlestim","64"," 106658","c","left","correct","1",NA,"1","trialend","singlestim","65"," 107670"
"167","  1","vomitvomit"," 1","vomit","positionleft","validityvalid","test","1","negative","singlestim","63","1000130","412","‚Äö√≥√®","67","dotpositionleft","singlestim","64","1000140","c","left","correct","1",NA,"1","trialend","singlestim","65","1000150"
"168","  1","doubledouble"," 1","double","positionright","validityvalid","test","4","neutral","singlestim","63","1000130","591","‚Äö√≥√®","77","dotpositionright","singlestim","64","1000140","m","right","correct","1",NA,"1","trialend","singlestim","65","1000150"
"169","425","successsuccess","67","success","positionleft","validityvalid","test","4","positive","singlestim","63","1000130","479","‚Äö√≥√®","67","dotpositionleft","singlestim","64","1000140","c","left","correct","1",NA,"1","trialend","singlestim","65","1000150"
"170","  1","metermeter"," 1","meter","positionleft","validityvalid","test","3","neutral","singlestim","63"," 742777","668","‚Äö√≥√®","67","dotpositionleft","singlestim","64"," 743496","c","left","correct","1",NA,"1","trialend","singlestim","65"," 744513"
"171","  1","successsuccess"," 1","success","positionleft","validityvalid","test","4","positive","singlestim","63","  94628","360","‚Äö√≥√®","67","dotpositionleft","singlestim","64","  95039","c","left","correct","1",NA,"1","trialend","singlestim","65","  96052"
"172","  1","strongstrong"," 1","strong","positionleft","validityvalid","test","3","positive","singlestim","63"," 385048","403","‚Äö√≥√®","67","dotpositionleft","singlestim","64"," 385504","c","left","correct","1",NA,"1","trialend","singlestim","65"," 386516"
"173","409","engineengine","76","engine","positionleft","validityvalid","test","4","neutral","singlestim","67","  88165","410","‚Äö√≥√®","67","dotpositionleft","singlestim","68","  88630","c","left","correct","1",NA,"1","trialend","singlestim","69","  89641"
"174","  1","paradiseparadise"," 1","paradise","positionleft","validityvalid","test","1","positive","singlestim","67","  74704","429","‚Äö√≥√®","67","dotpositionleft","singlestim","68","  75185","c","left","correct","1",NA,"1","trialend","singlestim","69","  76198"
"175","  1","braverybravery"," 1","bravery","positionleft","validityvalid","test","2","positive","singlestim","67","2529747","520","‚Äö√≥√®","67","dotpositionleft","singlestim","68","2530317","c","left","correct","1",NA,"1","trialend","singlestim","69","2531333"
"176","  1","wohlesswohless"," 1","wohless","positionright","validityvalid","test","4","negative","singlestim","67","  90873","374","‚Äö√≥√®","77","dotpositionright","singlestim","68","  91301","m","right","correct","1",NA,"1","trialend","singlestim","69","  92318"
"177","  1","vomitvomit"," 1","vomit","positionleft","validityvalid","test","1","negative","singlestim","67","  94096","350","‚Äö√≥√®","67","dotpositionleft","singlestim","68","  94498","c","left","correct","1",NA,"1","trialend","singlestim","69","  95512"
"178","  1","patheticpathetic"," 1","pathetic","positionleft","validityvalid","test","1","negative","singlestim","67","  95236"," 52","‚Äö√≥√®","67","dotpositionleft","singlestim","68","  95341","c","left","correct","1",NA,"1","trialend","singlestim","69","  96363"
"179","  1","noosenoose"," 1","noose","positionleft","validityvalid","test","2","suicide","singlestim","67","1000170","397","‚Äö√≥√®","67","dotpositionleft","singlestim","68","1000180","c","left","correct","1",NA,"1","trialend","singlestim","69","1000190"
"180","  1","kisskiss"," 1","kiss","positionright","validityinvalid","test","3","positive","singlestim","67","1000170","433","‚Äö√≥√®","67","dotpositionleft","singlestim","68","1000180","c","left","correct","1",NA,"1","trialend","singlestim","69","1000190"
"181","  1","touretoure"," 1","toure","positionleft","validityvalid","test","3","negative","singlestim","67"," 128478","390","‚Äö√≥√®","67","dotpositionleft","singlestim","68"," 128920","c","left","correct","1",NA,"1","trialend","singlestim","69"," 129934"
"182","  1","horsehorse"," 1","horse","positionleft","validityinvalid","test","2","neutral","singlestim","67","  79382","668","‚Äö√≥√®","77","dotpositionright","singlestim","68","  80104","m","right","correct","1",NA,"1","trialend","singlestim","69","  81120"
"183","  1","frameframe"," 1","frame","positionleft","validityinvalid","test","4","neutral","singlestim","67"," 109675","392","‚Äö√≥√®","77","dotpositionright","singlestim","68"," 110123","m","right","correct","1",NA,"1","trialend","singlestim","69"," 111138"
"184","  1","suffocationsuffocation"," 1","suffocation","positionleft","validityinvalid","test","1","suicide","singlestim","67","1000170","412","‚Äö√≥√®","77","dotpositionright","singlestim","68","1000180","m","right","correct","1",NA,"1","trialend","singlestim","69","1000190"
"185","  1","structurestructure"," 1","structure","positionright","validityvalid","test","4","neutral","singlestim","67","1000170","493","‚Äö√≥√®","77","dotpositionright","singlestim","68","1000180","m","right","correct","1",NA,"1","trialend","singlestim","69","1000190"
"186","  1","hanginghanging"," 1","hanging","positionleft","validityvalid","test","4","suicide","singlestim","67","1000170","419","‚Äö√≥√®","67","dotpositionleft","singlestim","68","1000180","c","left","correct","1",NA,"1","trialend","singlestim","69","1000190"
"187","  1","touretoure"," 1","toure","positionleft","validityvalid","test","3","negative","singlestim","67"," 746520","471","‚Äö√≥√®","67","dotpositionleft","singlestim","68"," 747044","c","left","correct","1",NA,"1","trialend","singlestim","69"," 748059"
"188","  1","engineengine"," 1","engine","positionleft","validityvalid","test","4","neutral","singlestim","67","  98055","348","‚Äö√≥√®","67","dotpositionleft","singlestim","68","  98455","c","left","correct","1",NA,"1","trialend","singlestim","69","  99468"
"189","  1","deaddead"," 1","dead","positionleft","validityinvalid","test","3","suicide","singlestim","67"," 388518","417","‚Äö√≥√®","77","dotpositionright","singlestim","68"," 388986","m","right","correct","1",NA,"1","trialend","singlestim","69"," 389999"
"190","  1","overdoseoverdose"," 1","overdose","positionright","validityinvalid","test","2","suicide","singlestim","67","  78859","813","‚Äö√≥√®","67","dotpositionleft","singlestim","68","  79723","c","left","correct","1",NA,"1","trialend","singlestim","69","  80737"
"191","  1","imageimage"," 1","image","positionleft","validityvalid","test","1","neutral","singlestim","67","1000170","399","‚Äö√≥√®","67","dotpositionleft","singlestim","68","1000180","c","left","correct","1",NA,"1","trialend","singlestim","69","1000190"
"192","  1","ashamedashamed"," 1","ashamed","positionright","validityinvalid","test","4","negative","singlestim","67","1000170","363","‚Äö√≥√®","67","dotpositionleft","singlestim","68","1000180","c","left","correct","1",NA,"1","trialend","singlestim","69","1000190"
"193","  1","paperpaper"," 1","paper","positionleft","validityvalid","test","2","neutral","singlestim","67","1000170","446","‚Äö√≥√®","67","dotpositionleft","singlestim","68","1000180","c","left","correct","1",NA,"1","trialend","singlestim","69","1000190"
"194","  1","foamfoam"," 1","foam","positionright","validityvalid","test","2","neutral","singlestim","67"," 473694","320","‚Äö√≥√®","77","dotpositionright","singlestim","68"," 474066","m","right","correct","1",NA,"1","trialend","singlestim","69"," 475079"
"195","  1","ashamedashamed"," 1","ashamed","positionright","validityinvalid","test","4","negative","singlestim","67"," 102451","335","‚Äö√≥√®","67","dotpositionleft","singlestim","68"," 102838","c","left","correct","1",NA,"1","trialend","singlestim","69"," 103853"
"196","  1","funeralfuneral"," 1","funeral","positionright","validityvalid","test","1","suicide","singlestim","67","1000170","359","‚Äö√≥√®","77","dotpositionright","singlestim","68","1000180","m","right","correct","1",NA,"1","trialend","singlestim","69","1000190"
"197","  1","ashamedashamed"," 1","ashamed","positionright","validityinvalid","test","4","negative","singlestim","67","1000170","427","‚Äö√≥√®","67","dotpositionleft","singlestim","68","1000180","c","left","correct","1",NA,"1","trialend","singlestim","69","1000190"
"198","  1","killingkilling"," 1","killing","positionleft","validityvalid","test","4","suicide","singlestim","67","1000170","389","‚Äö√≥√®","67","dotpositionleft","singlestim","68","1000180","c","left","correct","1",NA,"1","trialend","singlestim","69","1000190"
"199","  1","corpsecorpse"," 1","corpse","positionleft","validityvalid","test","2","suicide","singlestim","67","1000170","559","‚Äö√≥√®","67","dotpositionleft","singlestim","68","1000180","c","left","correct","1",NA,"1","trialend","singlestim","69","1000190"
"200","  1","paperpaper"," 1","paper","positionleft","validityvalid","test","2","neutral","singlestim","67","1000170","389","‚Äö√≥√®","67","dotpositionleft","singlestim","68","1000180","c","left","correct","1",NA,"1","trialend","singlestim","69","1000190"
"201","  1","horsehorse"," 1","horse","positionleft","validityinvalid","test","2","neutral","singlestim","67","1000170","428","‚Äö√≥√®","77","dotpositionright","singlestim","68","1000180","m","right","correct","1",NA,"1","trialend","singlestim","69","1000190"
"202","  1","closetcloset"," 1","closet","positionright","validityinvalid","test","3","neutral","singlestim","67"," 101224","306","‚Äö√≥√®","67","dotpositionleft","singlestim","68"," 101583","c","left","correct","1",NA,"1","trialend","singlestim","69"," 102597"
"203","  1","cheesecheese"," 1","cheese","positionright","validityvalid","test","1","neutral","singlestim","67"," 154643","404","‚Äö√≥√®","77","dotpositionright","singlestim","68"," 155099","m","right","correct","1",NA,"1","trialend","singlestim","69"," 156110"
"204","  1","greengreen"," 1","green","positionright","validityvalid","test","3","neutral","singlestim","67","  94242","385","‚Äö√≥√®","77","dotpositionright","singlestim","68","  94684","m","right","correct","1",NA,"1","trialend","singlestim","69","  95697"
"205","  1","noosenoose"," 1","noose","positionleft","validityvalid","test","2","suicide","singlestim","67","1000170","397","‚Äö√≥√®","67","dotpositionleft","singlestim","68","1000180","c","left","correct","1",NA,"1","trialend","singlestim","69","1000190"
"206","  1","kisskiss"," 1","kiss","positionright","validityinvalid","test","3","positive","singlestim","67","1000170","433","‚Äö√≥√®","67","dotpositionleft","singlestim","68","1000180","c","left","correct","1",NA,"1","trialend","singlestim","69","1000190"
"207","  1","touretoure"," 1","toure","positionleft","validityvalid","test","3","negative","singlestim","67"," 128478","390","‚Äö√≥√®","67","dotpositionleft","singlestim","68"," 128920","c","left","correct","1",NA,"1","trialend","singlestim","69"," 129934"
"208","  1","horsehorse"," 1","horse","positionleft","validityinvalid","test","2","neutral","singlestim","67","  79382","668","‚Äö√≥√®","77","dotpositionright","singlestim","68","  80104","m","right","correct","1",NA,"1","trialend","singlestim","69","  81120"
"209","  1","frameframe"," 1","frame","positionleft","validityinvalid","test","4","neutral","singlestim","67"," 109675","392","‚Äö√≥√®","77","dotpositionright","singlestim","68"," 110123","m","right","correct","1",NA,"1","trialend","singlestim","69"," 111138"
"210","  1","suffocationsuffocation"," 1","suffocation","positionleft","validityinvalid","test","1","suicide","singlestim","67","1000170","412","‚Äö√≥√®","77","dotpositionright","singlestim","68","1000180","m","right","correct","1",NA,"1","trialend","singlestim","69","1000190"
"211","  1","structurestructure"," 1","structure","positionright","validityvalid","test","4","neutral","singlestim","67","1000170","493","‚Äö√≥√®","77","dotpositionright","singlestim","68","1000180","m","right","correct","1",NA,"1","trialend","singlestim","69","1000190"
"212","  1","hanginghanging"," 1","hanging","positionleft","validityvalid","test","4","suicide","singlestim","67","1000170","419","‚Äö√≥√®","67","dotpositionleft","singlestim","68","1000180","c","left","correct","1",NA,"1","trialend","singlestim","69","1000190"
"213","  1","touretoure"," 1","toure","positionleft","validityvalid","test","3","negative","singlestim","67"," 746520","471","‚Äö√≥√®","67","dotpositionleft","singlestim","68"," 747044","c","left","correct","1",NA,"1","trialend","singlestim","69"," 748059"
"214","  1","engineengine"," 1","engine","positionleft","validityvalid","test","4","neutral","singlestim","67","  98055","348","‚Äö√≥√®","67","dotpositionleft","singlestim","68","  98455","c","left","correct","1",NA,"1","trialend","singlestim","69","  99468"
"215","  1","deaddead"," 1","dead","positionleft","validityinvalid","test","3","suicide","singlestim","67"," 388518","417","‚Äö√≥√®","77","dotpositionright","singlestim","68"," 388986","m","right","correct","1",NA,"1","trialend","singlestim","69"," 389999"
"216","  1","alonealone"," 1","alone","positionleft","validityvalid","test","4","negative","singlestim","71","  91650","   1","‚Äö√≥√®"," 1","dotpositionleft","singlestim","72","  93705","","incorrect","1",NA,NA,"1","trialend","singlestim","73","  94721"
"217","  1","cryingcrying"," 1","crying","positionright","validityvalid","test","1","negative","singlestim","71","  78202"," 549","‚Äö√≥√®","77","dotpositionright","singlestim","72","  78803","m","right","correct"," 1",NA,"1","trialend","singlestim","73","  79817"
"218","  1","deathdeath"," 1","death","positionright","validityvalid","test","2","suicide","singlestim","71","2533339"," 414","‚Äö√≥√®","77","dotpositionright","singlestim","72","2533805","m","right","correct"," 1",NA,"1","trialend","singlestim","73","2534821"
"219","  1","successsuccess"," 1","success","positionleft","validityvalid","test","4","positive","singlestim","71","  94327"," 510","‚Äö√≥√®","67","dotpositionleft","singlestim","72","  94890","c","left","correct"," 1",NA,"1","trialend","singlestim","73","  95902"
"220","  1","funeralfuneral"," 1","funeral","positionright","validityvalid","test","1","suicide","singlestim","71","  97519"," 351","‚Äö√≥√®","77","dotpositionright","singlestim","72","  97923","m","right","correct"," 1",NA,"1","trialend","singlestim","73","  98936"
"221","635","cheesecheese","77","cheese","positionright","validityvalid","test","1","neutral","singlestim","71","  98380"," 366","‚Äö√≥√®","77","dotpositionright","singlestim","72","  98796","m","right","correct"," 1",NA,"1","trialend","singlestim","73","  99814"
"222","  1","horsehorse"," 1","horse","positionleft","validityinvalid","test","2","neutral","singlestim","71","1000210","   1","‚Äö√≥√®"," 1","dotpositionright","singlestim","72","1000220","","","incorrect"," 1",NA,"1","trialend","singlestim","73"," 887332"
"223","  1","happyhappy"," 1","happy","positionright","validityvalid","test","3","positive","singlestim","71","1000210"," 373","‚Äö√≥√®","77","dotpositionright","singlestim","72","1000220","m","right","correct"," 1",NA,"1","trialend","singlestim","73","1000230"
"224","  1","kisskiss"," 1","kiss","positionright","validityinvalid","test","3","positive","singlestim","71"," 131938"," 495","‚Äö√≥√®","67","dotpositionleft","singlestim","72"," 132485","c","left","correct"," 1",NA,"1","trialend","singlestim","73"," 133498"
"225","  1","tabletable"," 1","table","positionright","validityvalid","test","2","neutral","singlestim","71","  83130"," 719","‚Äö√≥√®","77","dotpositionright","singlestim","72","  83904","m","right","correct"," 1",NA,"1","trialend","singlestim","73","  84925"
"226","  1","suicidesuicide"," 1","suicide","positionright","validityinvalid","test","4","suicide","singlestim","71"," 113143"," 609","‚Äö√≥√®","67","dotpositionleft","singlestim","72"," 113802","c","left","correct"," 1",NA,"1","trialend","singlestim","73"," 114814"
"227","  1","paradiseparadise"," 1","paradise","positionleft","validityvalid","test","1","positive","singlestim","71","1000210"," 550","‚Äö√≥√®","67","dotpositionleft","singlestim","72","1000220","c","left","correct"," 1",NA,"1","trialend","singlestim","73","1000230"
"228","  1","wohlesswohless"," 1","wohless","positionright","validityvalid","test","4","negative","singlestim","71","1000210"," 522","‚Äö√≥√®","77","dotpositionright","singlestim","72","1000220","m","right","correct"," 1",NA,"1","trialend","singlestim","73","1000230"
"229","  1","suicidesuicide"," 1","suicide","positionright","validityinvalid","test","4","suicide","singlestim","71","1000210"," 544","‚Äö√≥√®","67","dotpositionleft","singlestim","72","1000220","c","left","correct"," 1",NA,"1","trialend","singlestim","73","1000230"
"230","  1","rejectedrejected"," 1","rejected","positionright","validityvalid","test","3","negative","singlestim","71"," 750067"," 442","‚Äö√≥√®","77","dotpositionright","singlestim","72"," 750561","m","right","correct"," 1",NA,"1","trialend","singlestim","73"," 751575"
"231","  1","hanginghanging"," 1","hanging","positionleft","validityvalid","test","4","suicide","singlestim","71"," 101470"," 390","‚Äö√≥√®","67","dotpositionleft","singlestim","72"," 101912","c","left","correct"," 1",NA,"1","trialend","singlestim","73"," 102923"
"232","  1","happyhappy"," 1","happy","positionright","validityvalid","test","3","positive","singlestim","71"," 392004"," 407","‚Äö√≥√®","77","dotpositionright","singlestim","72"," 392463","m","right","correct"," 1",NA,"1","trialend","singlestim","73"," 393476"
"233","  1","braverybravery"," 1","bravery","positionleft","validityvalid","test","2","positive","singlestim","71","  82741"," 639","‚Äö√≥√®","67","dotpositionleft","singlestim","72","  83432","c","left","correct"," 1",NA,"1","trialend","singlestim","73","  84446"
"234","  1","greatgreat"," 1","great","positionright","validityvalid","test","1","positive","singlestim","71","1000210"," 437","‚Äö√≥√®","77","dotpositionright","singlestim","72","1000220","m","right","correct"," 1",NA,"1","trialend","singlestim","73","1000230"
"235","  1","doubledouble"," 1","double","positionright","validityvalid","test","4","neutral","singlestim","71","1000210"," 402","‚Äö√≥√®","77","dotpositionright","singlestim","72","1000220","m","right","correct"," 1",NA,"1","trialend","singlestim","73","1000230"
"236","  1","failurefailure"," 1","failure","positionleft","validityvalid","test","2","negative","singlestim","71","1000210"," 400","‚Äö√≥√®","67","dotpositionleft","singlestim","72","1000220","c","left","correct"," 1",NA,"1","trialend","singlestim","73","1000230"
"237","  1","braverybravery"," 1","bravery","positionleft","validityvalid","test","2","positive","singlestim","71"," 477083"," 438","‚Äö√≥√®","67","dotpositionleft","singlestim","72"," 477573","c","left","correct"," 1",NA,"1","trialend","singlestim","73"," 478586"
"238","  1","frameframe"," 1","frame","positionleft","validityinvalid","test","4","neutral","singlestim","71"," 105858"," 329","‚Äö√≥√®","77","dotpositionright","singlestim","72"," 106240","m","right","correct"," 1",NA,"1","trialend","singlestim","73"," 107254"
"239","  1","imageimage"," 1","image","positionleft","validityvalid","test","1","neutral","singlestim","71","1000210"," 409","‚Äö√≥√®","67","dotpositionleft","singlestim","72","1000220","c","left","correct"," 1",NA,"1","trialend","singlestim","73","1000230"
"240","  1","ecstaticecstatic"," 1","ecstatic","positionright","validityvalid","test","4","positive","singlestim","71","1000210"," 295","‚Äö√≥√®","77","dotpositionright","singlestim","72","1000220","m","right","correct"," 1",NA,"1","trialend","singlestim","73","1000230"
"241","  1","frameframe"," 1","frame","positionleft","validityinvalid","test","4","neutral","singlestim","71","1000210"," 371","‚Äö√≥√®","77","dotpositionright","singlestim","72","1000220","m","right","correct"," 1",NA,"1","trialend","singlestim","73","1000230"
"242","  1","cruelcruel"," 1","cruel","positionright","validityvalid","test","2","negative","singlestim","71","1000210","1005","‚Äö√≥√®","77","dotpositionright","singlestim","72","1000220","m","right","correct"," 1",NA,"1","trialend","singlestim","73","1000230"
"243","  1","lovelove"," 1","love","positionright","validityinvalid","test","2","positive","singlestim","71","1000210"," 473","‚Äö√≥√®","67","dotpositionleft","singlestim","72","1000220","c","left","correct"," 1",NA,"1","trialend","singlestim","73","1000230"
"244","  1","filthyfilthy"," 1","filthy","positionleft","validityinvalid","test","2","negative","singlestim","71","1000210"," 653","‚Äö√≥√®","77","dotpositionright","singlestim","72","1000220","m","right","correct"," 1",NA,"1","trialend","singlestim","73","1000230"
"245","  1","bombbomb"," 1","bomb","positionright","validityvalid","test","3","negative","singlestim","71"," 104603"," 514","‚Äö√≥√®","77","dotpositionright","singlestim","72"," 105170","m","right","correct"," 1",NA,"1","trialend","singlestim","73"," 106183"
"246","  1","greatgreat"," 1","great","positionright","validityvalid","test","1","positive","singlestim","71"," 158113"," 367","‚Äö√≥√®","77","dotpositionright","singlestim","72"," 158533","m","right","correct"," 1",NA,"1","trialend","singlestim","73"," 159545"
"247","  1","assaultassault"," 1","assault","positionleft","validityinvalid","test","3","negative","singlestim","71","  97705"," 381","‚Äö√≥√®","77","dotpositionright","singlestim","72","  98140","m","right","correct"," 1",NA,"1","trialend","singlestim","73","  99157"
"248","  1","horsehorse"," 1","horse","positionleft","validityinvalid","test","2","neutral","singlestim","71","1000210","   1","‚Äö√≥√®"," 1","dotpositionright","singlestim","72","1000220","","","incorrect"," 1",NA,"1","trialend","singlestim","73"," 887332"
"249","  1","happyhappy"," 1","happy","positionright","validityvalid","test","3","positive","singlestim","71","1000210"," 373","‚Äö√≥√®","77","dotpositionright","singlestim","72","1000220","m","right","correct"," 1",NA,"1","trialend","singlestim","73","1000230"
"250","  1","kisskiss"," 1","kiss","positionright","validityinvalid","test","3","positive","singlestim","71"," 131938"," 495","‚Äö√≥√®","67","dotpositionleft","singlestim","72"," 132485","c","left","correct"," 1",NA,"1","trialend","singlestim","73"," 133498"
"251","  1","tabletable"," 1","table","positionright","validityvalid","test","2","neutral","singlestim","71","  83130"," 719","‚Äö√≥√®","77","dotpositionright","singlestim","72","  83904","m","right","correct"," 1",NA,"1","trialend","singlestim","73","  84925"
"252","  1","suicidesuicide"," 1","suicide","positionright","validityinvalid","test","4","suicide","singlestim","71"," 113143"," 609","‚Äö√≥√®","67","dotpositionleft","singlestim","72"," 113802","c","left","correct"," 1",NA,"1","trialend","singlestim","73"," 114814"
"253","  1","paradiseparadise"," 1","paradise","positionleft","validityvalid","test","1","positive","singlestim","71","1000210"," 550","‚Äö√≥√®","67","dotpositionleft","singlestim","72","1000220","c","left","correct"," 1",NA,"1","trialend","singlestim","73","1000230"
"254","  1","wohlesswohless"," 1","wohless","positionright","validityvalid","test","4","negative","singlestim","71","1000210"," 522","‚Äö√≥√®","77","dotpositionright","singlestim","72","1000220","m","right","correct"," 1",NA,"1","trialend","singlestim","73","1000230"
"255","  1","suicidesuicide"," 1","suicide","positionright","validityinvalid","test","4","suicide","singlestim","71","1000210"," 544","‚Äö√≥√®","67","dotpositionleft","singlestim","72","1000220","c","left","correct"," 1",NA,"1","trialend","singlestim","73","1000230"
"256","  1","rejectedrejected"," 1","rejected","positionright","validityvalid","test","3","negative","singlestim","71"," 750067"," 442","‚Äö√≥√®","77","dotpositionright","singlestim","72"," 750561","m","right","correct"," 1",NA,"1","trialend","singlestim","73"," 751575"
"257","  1","hanginghanging"," 1","hanging","positionleft","validityvalid","test","4","suicide","singlestim","71"," 101470"," 390","‚Äö√≥√®","67","dotpositionleft","singlestim","72"," 101912","c","left","correct"," 1",NA,"1","trialend","singlestim","73"," 102923"
"258","  1","happyhappy"," 1","happy","positionright","validityvalid","test","3","positive","singlestim","71"," 392004"," 407","‚Äö√≥√®","77","dotpositionright","singlestim","72"," 392463","m","right","correct"," 1",NA,"1","trialend","singlestim","73"," 393476"
"259","1000230","wohlesswohless"," 1","wohless","positionright","validityvalid","test","4","negative","singlestim","75","  96728","1000250","‚Äö√≥√®","77","dotpositionright","singlestim","76","  97676","1000260","right","correct","1",NA,"1","trialend","singlestim","77","  98690"
"260","      1","gunshotgunshot"," 1","gunshot","positionright","validityvalid","test","1","suicide","singlestim","75","  81821","    329","‚Äö√≥√®","77","dotpositionright","singlestim","76","  82202","m","right","correct","1",NA,"1","trialend","singlestim","77","  83216"
"261","      1","overdoseoverdose"," 1","overdose","positionright","validityinvalid","test","2","suicide","singlestim","75","2536828","    470","‚Äö√≥√®","67","dotpositionleft","singlestim","76","2537350","c","left","correct","1",NA,"1","trialend","singlestim","77","2538364"
"262","      1","deceaseddeceased"," 1","deceased","positionright","validityvalid","test","4","suicide","singlestim","75","  97909","    453","‚Äö√≥√®","77","dotpositionright","singlestim","76","  98416","m","right","correct","1",NA,"1","trialend","singlestim","77","  99432"
"263","      1","hatehate"," 1","hate","positionright","validityinvalid","test","1","negative","singlestim","75"," 100942","    406","‚Äö√≥√®","67","dotpositionleft","singlestim","76"," 101400","c","left","correct","1",NA,"1","trialend","singlestim","77"," 102415"
"264","    356","cryingcrying","77","crying","positionright","validityvalid","test","1","negative","singlestim","75"," 101819","    379","‚Äö√≥√®","77","dotpositionright","singlestim","76"," 102251","m","right","correct","1",NA,"1","trialend","singlestim","77"," 103268"
"265","      1","corpsecorpse"," 1","corpse","positionleft","validityvalid","test","2","suicide","singlestim","75"," 890975","    859","‚Äö√≥√®","67","dotpositionleft","singlestim","76"," 891897","c","left","correct","1",NA,"1","trialend","singlestim","77"," 892913"
"266","      1","bombbomb"," 1","bomb","positionright","validityvalid","test","3","negative","singlestim","75","1000250","    421","‚Äö√≥√®","77","dotpositionright","singlestim","76","1000260","m","right","correct","1",NA,"1","trialend","singlestim","77","1000270"
"267","      1","assaultassault"," 1","assault","positionleft","validityinvalid","test","3","negative","singlestim","75"," 135503","    403","‚Äö√≥√®","77","dotpositionright","singlestim","76"," 135958","m","right","correct","1",NA,"1","trialend","singlestim","77"," 136971"
"268","      1","abuseabuse"," 1","abuse","positionright","validityvalid","test","2","negative","singlestim","75","  86934","    575","‚Äö√≥√®","77","dotpositionright","singlestim","76","  87563","m","right","correct","1",NA,"1","trialend","singlestim","77","  88580"
"269","      1","wohlesswohless"," 1","wohless","positionright","validityvalid","test","4","negative","singlestim","75"," 116822","    382","‚Äö√≥√®","77","dotpositionright","singlestim","76"," 117255","m","right","correct","1",NA,"1","trialend","singlestim","77"," 118268"
"270","      1","cryingcrying"," 1","crying","positionright","validityvalid","test","1","negative","singlestim","75","1000250","    331","‚Äö√≥√®","77","dotpositionright","singlestim","76","1000260","m","right","correct","1",NA,"1","trialend","singlestim","77","1000270"
"271","      1","successsuccess"," 1","success","positionleft","validityvalid","test","4","positive","singlestim","75","1000250","    453","‚Äö√≥√®","67","dotpositionleft","singlestim","76","1000260","c","left","correct","1",NA,"1","trialend","singlestim","77","1000270"
"272","      1","passionatepassionate"," 1","passionate","positionleft","validityinvalid","test","4","positive","singlestim","75","1000250","    427","‚Äö√≥√®","77","dotpositionright","singlestim","76","1000260","m","right","correct","1",NA,"1","trialend","singlestim","77","1000270"
"273","      1","bombbomb"," 1","bomb","positionright","validityvalid","test","3","negative","singlestim","75"," 753584","    926","‚Äö√≥√®","77","dotpositionright","singlestim","76"," 754568","m","right","correct","1",NA,"1","trialend","singlestim","77"," 755580"
"274","      1","doubledouble"," 1","double","positionright","validityvalid","test","4","neutral","singlestim","75"," 104926","    377","‚Äö√≥√®","77","dotpositionright","singlestim","76"," 105355","m","right","correct","1",NA,"1","trialend","singlestim","77"," 106366"
"275","      1","kisskiss"," 1","kiss","positionright","validityinvalid","test","3","positive","singlestim","75"," 395481","    343","‚Äö√≥√®","67","dotpositionleft","singlestim","76"," 395876","c","left","correct","1",NA,"1","trialend","singlestim","77"," 396889"
"276","      1","abuseabuse"," 1","abuse","positionright","validityvalid","test","2","negative","singlestim","75","  86450","    588","‚Äö√≥√®","77","dotpositionright","singlestim","76","  87090","m","right","correct","1",NA,"1","trialend","singlestim","77","  88104"
"277","      1","healthyhealthy"," 1","healthy","positionleft","validityinvalid","test","1","positive","singlestim","75","1000250","    386","‚Äö√≥√®","77","dotpositionright","singlestim","76","1000260","m","right","correct","1",NA,"1","trialend","singlestim","77","1000270"
"278","      1","laughlaugh"," 1","laugh","positionright","validityvalid","test","4","positive","singlestim","75","1000250","    332","‚Äö√≥√®","77","dotpositionright","singlestim","76","1000260","m","right","correct","1",NA,"1","trialend","singlestim","77","1000270"
"279","      1","cruelcruel"," 1","cruel","positionright","validityvalid","test","2","negative","singlestim","75","1000250","    429","‚Äö√≥√®","77","dotpositionright","singlestim","76","1000260","m","right","correct","1",NA,"1","trialend","singlestim","77","1000270"
"280","      1","horsehorse"," 1","horse","positionleft","validityinvalid","test","2","neutral","singlestim","75"," 480591","    410","‚Äö√≥√®","77","dotpositionright","singlestim","76"," 481054","m","right","correct","1",NA,"1","trialend","singlestim","77"," 482067"
"281","      1","deceaseddeceased"," 1","deceased","positionright","validityvalid","test","4","suicide","singlestim","75"," 109259","    357","‚Äö√≥√®","77","dotpositionright","singlestim","76"," 109668","m","right","correct","1",NA,"1","trialend","singlestim","77"," 110681"
"282","      1","healthyhealthy"," 1","healthy","positionleft","validityinvalid","test","1","positive","singlestim","75","1000250","    326","‚Äö√≥√®","77","dotpositionright","singlestim","76","1000260","m","right","correct","1",NA,"1","trialend","singlestim","77","1000270"
"283","      1","frameframe"," 1","frame","positionleft","validityinvalid","test","4","neutral","singlestim","75","1000250","    334","‚Äö√≥√®","77","dotpositionright","singlestim","76","1000260","m","right","correct","1",NA,"1","trialend","singlestim","77","1000270"
"284","      1","structurestructure"," 1","structure","positionright","validityvalid","test","4","neutral","singlestim","75","1000250","    365","‚Äö√≥√®","77","dotpositionright","singlestim","76","1000260","m","right","correct","1",NA,"1","trialend","singlestim","77","1000270"
"285","      1","lovelove"," 1","love","positionright","validityinvalid","test","2","positive","singlestim","75","1000250","    567","‚Äö√≥√®","67","dotpositionleft","singlestim","76","1000260","c","left","correct","1",NA,"1","trialend","singlestim","77","1000270"
"286","      1","pleasurepleasure"," 1","pleasure","positionleft","validityvalid","test","2","positive","singlestim","75","1000250","    518","‚Äö√≥√®","67","dotpositionleft","singlestim","76","1000260","c","left","correct","1",NA,"1","trialend","singlestim","77","1000270"
"287","      1","tabletable"," 1","table","positionright","validityvalid","test","2","neutral","singlestim","75","1000250","    442","‚Äö√≥√®","77","dotpositionright","singlestim","76","1000260","m","right","correct","1",NA,"1","trialend","singlestim","77","1000270"
"288","      1","museummuseum"," 1","museum","positionleft","validityvalid","test","3","neutral","singlestim","75"," 108189","    351","‚Äö√≥√®","67","dotpositionleft","singlestim","76"," 108591","c","left","correct","1",NA,"1","trialend","singlestim","77"," 109605"
"289","      1","bloodblood"," 1","blood","positionleft","validityvalid","test","1","suicide","singlestim","75"," 161548","    437","‚Äö√≥√®","67","dotpositionleft","singlestim","76"," 162035","c","left","correct","1",NA,"1","trialend","singlestim","77"," 163048"
"290","      1","kisskiss"," 1","kiss","positionright","validityinvalid","test","3","positive","singlestim","75"," 101165","    416","‚Äö√≥√®","67","dotpositionleft","singlestim","76"," 101633","c","left","correct","1",NA,"1","trialend","singlestim","77"," 102650"
"291","      1","corpsecorpse"," 1","corpse","positionleft","validityvalid","test","2","suicide","singlestim","75"," 890975","    859","‚Äö√≥√®","67","dotpositionleft","singlestim","76"," 891897","c","left","correct","1",NA,"1","trialend","singlestim","77"," 892913"
"292","      1","bombbomb"," 1","bomb","positionright","validityvalid","test","3","negative","singlestim","75","1000250","    421","‚Äö√≥√®","77","dotpositionright","singlestim","76","1000260","m","right","correct","1",NA,"1","trialend","singlestim","77","1000270"
"293","      1","assaultassault"," 1","assault","positionleft","validityinvalid","test","3","negative","singlestim","75"," 135503","    403","‚Äö√≥√®","77","dotpositionright","singlestim","76"," 135958","m","right","correct","1",NA,"1","trialend","singlestim","77"," 136971"
"294","      1","abuseabuse"," 1","abuse","positionright","validityvalid","test","2","negative","singlestim","75","  86934","    575","‚Äö√≥√®","77","dotpositionright","singlestim","76","  87563","m","right","correct","1",NA,"1","trialend","singlestim","77","  88580"
"295","      1","wohlesswohless"," 1","wohless","positionright","validityvalid","test","4","negative","singlestim","75"," 116822","    382","‚Äö√≥√®","77","dotpositionright","singlestim","76"," 117255","m","right","correct","1",NA,"1","trialend","singlestim","77"," 118268"
"296","      1","cryingcrying"," 1","crying","positionright","validityvalid","test","1","negative","singlestim","75","1000250","    331","‚Äö√≥√®","77","dotpositionright","singlestim","76","1000260","m","right","correct","1",NA,"1","trialend","singlestim","77","1000270"
"297","      1","successsuccess"," 1","success","positionleft","validityvalid","test","4","positive","singlestim","75","1000250","    453","‚Äö√≥√®","67","dotpositionleft","singlestim","76","1000260","c","left","correct","1",NA,"1","trialend","singlestim","77","1000270"
"298","      1","passionatepassionate"," 1","passionate","positionleft","validityinvalid","test","4","positive","singlestim","75","1000250","    427","‚Äö√≥√®","77","dotpositionright","singlestim","76","1000260","m","right","correct","1",NA,"1","trialend","singlestim","77","1000270"
"299","      1","bombbomb"," 1","bomb","positionright","validityvalid","test","3","negative","singlestim","75"," 753584","    926","‚Äö√≥√®","77","dotpositionright","singlestim","76"," 754568","m","right","correct","1",NA,"1","trialend","singlestim","77"," 755580"
"300","      1","doubledouble"," 1","double","positionright","validityvalid","test","4","neutral","singlestim","75"," 104926","    377","‚Äö√≥√®","77","dotpositionright","singlestim","76"," 105355","m","right","correct","1",NA,"1","trialend","singlestim","77"," 106366"
"301","      1","kisskiss"," 1","kiss","positionright","validityinvalid","test","3","positive","singlestim","75"," 395481","    343","‚Äö√≥√®","67","dotpositionleft","singlestim","76"," 395876","c","left","correct","1",NA,"1","trialend","singlestim","77"," 396889"
"302","1000270","stupidstupid"," 1","stupid","positionleft","validityvalid","test","4","negative","singlestim","79"," 100699","1000290","‚Äö√≥√®"," 1","dotpositionleft","singlestim","80"," 102757","1000300","","incorrect","1",NA,"1","trialend","singlestim","81"," 103773"
"303","      1","funeralfuneral"," 1","funeral","positionright","validityvalid","test","1","suicide","singlestim","79","  85221","    379","‚Äö√≥√®","77","dotpositionright","singlestim","80","  85653","m","right","correct","1",NA,"1","trialend","singlestim","81","  86666"
"304","      1","foamfoam"," 1","foam","positionright","validityvalid","test","2","neutral","singlestim","79","2540369","    444","‚Äö√≥√®","77","dotpositionright","singlestim","80","2540866","m","right","correct","1",NA,"1","trialend","singlestim","81","2541882"
"305","      1","killingkilling"," 1","killing","positionleft","validityvalid","test","4","suicide","singlestim","79"," 101443","    356","‚Äö√≥√®","67","dotpositionleft","singlestim","80"," 101852","c","left","correct","1",NA,"1","trialend","singlestim","81"," 102869"
"306","      1","attractionattraction"," 1","attraction","positionright","validityvalid","test","1","positive","singlestim","79"," 104420","    391","‚Äö√≥√®","77","dotpositionright","singlestim","80"," 104864","m","right","correct","1",NA,"1","trialend","singlestim","81"," 105878"
"307","    421","vomitvomit","67","vomit","positionleft","validityvalid","test","1","negative","singlestim","79"," 105288","    292","‚Äö√≥√®","67","dotpositionleft","singlestim","80"," 105632","c","left","correct","1",NA,"1","trialend","singlestim","81"," 106655"
"308","      1","braverybravery"," 1","bravery","positionleft","validityvalid","test","2","positive","singlestim","79"," 894918","    430","‚Äö√≥√®","67","dotpositionleft","singlestim","80"," 895400","c","left","correct","1",NA,"1","trialend","singlestim","81"," 896416"
"309","      1","cuttingcutting"," 1","cutting","positionright","validityvalid","test","3","suicide","singlestim","79","1000290","    436","‚Äö√≥√®","77","dotpositionright","singlestim","80","1000300","m","right","correct","1",NA,"1","trialend","singlestim","81","1000310"
"310","      1","strongstrong"," 1","strong","positionleft","validityvalid","test","3","positive","singlestim","79"," 138974","    551","‚Äö√≥√®","67","dotpositionleft","singlestim","80"," 139577","c","left","correct","1",NA,"1","trialend","singlestim","81"," 140589"
"311","      1","braverybravery"," 1","bravery","positionleft","validityvalid","test","2","positive","singlestim","79","  90591","    605","‚Äö√≥√®","67","dotpositionleft","singlestim","80","  91252","c","left","correct","1",NA,"1","trialend","singlestim","81","  92267"
"312","      1","structurestructure"," 1","structure","positionright","validityvalid","test","4","neutral","singlestim","79"," 120275","    383","‚Äö√≥√®","77","dotpositionright","singlestim","80"," 120709","m","right","correct","1",NA,"1","trialend","singlestim","81"," 121726"
"313","      1","patheticpathetic"," 1","pathetic","positionleft","validityvalid","test","1","negative","singlestim","79","1000290","    450","‚Äö√≥√®","67","dotpositionleft","singlestim","80","1000300","c","left","correct","1",NA,"1","trialend","singlestim","81","1000310"
"314","      1","killingkilling"," 1","killing","positionleft","validityvalid","test","4","suicide","singlestim","79","1000290","    608","‚Äö√≥√®","67","dotpositionleft","singlestim","80","1000300","c","left","correct","1",NA,"1","trialend","singlestim","81","1000310"
"315","      1","wohlesswohless"," 1","wohless","positionright","validityvalid","test","4","negative","singlestim","79","1000290","    425","‚Äö√≥√®","77","dotpositionright","singlestim","80","1000300","m","right","correct","1",NA,"1","trialend","singlestim","81","1000310"
"316","      1","closetcloset"," 1","closet","positionright","validityinvalid","test","3","neutral","singlestim","79"," 757589","    363","‚Äö√≥√®","67","dotpositionleft","singlestim","80"," 758007","c","left","correct","1",NA,"1","trialend","singlestim","81"," 759022"
"317","      1","frameframe"," 1","frame","positionleft","validityinvalid","test","4","neutral","singlestim","79"," 108369","    393","‚Äö√≥√®","77","dotpositionright","singlestim","80"," 108814","m","right","correct","1",NA,"1","trialend","singlestim","81"," 109828"
"318","      1","smilesmile"," 1","smile","positionleft","validityvalid","test","3","positive","singlestim","79"," 398893","    374","‚Äö√≥√®","67","dotpositionleft","singlestim","80"," 399319","c","left","correct","1",NA,"1","trialend","singlestim","81"," 400331"
"319","      1","cruelcruel"," 1","cruel","positionright","validityvalid","test","2","negative","singlestim","79","  90109","    625","‚Äö√≥√®","77","dotpositionright","singlestim","80","  90785","m","right","correct","1",NA,"1","trialend","singlestim","81","  91798"
"320","      1","hatehate"," 1","hate","positionright","validityinvalid","test","1","negative","singlestim","79","1000290","    340","‚Äö√≥√®","67","dotpositionleft","singlestim","80","1000300","c","left","correct","1",NA,"1","trialend","singlestim","81","1000310"
"321","      1","structurestructure"," 1","structure","positionright","validityvalid","test","4","neutral","singlestim","79","1000290","    364","‚Äö√≥√®","77","dotpositionright","singlestim","80","1000300","m","right","correct","1",NA,"1","trialend","singlestim","81","1000310"
"322","      1","foamfoam"," 1","foam","positionright","validityvalid","test","2","neutral","singlestim","79","1000290","    362","‚Äö√≥√®","77","dotpositionright","singlestim","80","1000300","m","right","correct","1",NA,"1","trialend","singlestim","81","1000310"
"323","      1","abuseabuse"," 1","abuse","positionright","validityvalid","test","2","negative","singlestim","79"," 484072","    322","‚Äö√≥√®","77","dotpositionright","singlestim","80"," 484446","m","right","correct","1",NA,"1","trialend","singlestim","81"," 485459"
"324","      1","ecstaticecstatic"," 1","ecstatic","positionright","validityvalid","test","4","positive","singlestim","79"," 112686","    347","‚Äö√≥√®","77","dotpositionright","singlestim","80"," 113086","m","right","correct","1",NA,"1","trialend","singlestim","81"," 114098"
"325","      1","gunshotgunshot"," 1","gunshot","positionright","validityvalid","test","1","suicide","singlestim","79","1000290","    388","‚Äö√≥√®","77","dotpositionright","singlestim","80","1000300","m","right","correct","1",NA,"1","trialend","singlestim","81","1000310"
"326","      1","engineengine"," 1","engine","positionleft","validityvalid","test","4","neutral","singlestim","79","1000290","    339","‚Äö√≥√®","67","dotpositionleft","singlestim","80","1000300","c","left","correct","1",NA,"1","trialend","singlestim","81","1000310"
"327","      1","ecstaticecstatic"," 1","ecstatic","positionright","validityvalid","test","4","positive","singlestim","79","1000290","    424","‚Äö√≥√®","77","dotpositionright","singlestim","80","1000300","m","right","correct","1",NA,"1","trialend","singlestim","81","1000310"
"328","      1","paperpaper"," 1","paper","positionleft","validityvalid","test","2","neutral","singlestim","79","1000290","    457","‚Äö√≥√®","67","dotpositionleft","singlestim","80","1000300","c","left","correct","1",NA,"1","trialend","singlestim","81","1000310"
"329","      1","failurefailure"," 1","failure","positionleft","validityvalid","test","2","negative","singlestim","79","1000290","    429","‚Äö√≥√®","67","dotpositionleft","singlestim","80","1000300","c","left","correct","1",NA,"1","trialend","singlestim","81","1000310"
"330","      1","braverybravery"," 1","bravery","positionleft","validityvalid","test","2","positive","singlestim","79","1000290","    393","‚Äö√≥√®","67","dotpositionleft","singlestim","80","1000300","c","left","correct","1",NA,"1","trialend","singlestim","81","1000310"
"331","      1","strongstrong"," 1","strong","positionleft","validityvalid","test","3","positive","singlestim","79"," 111610","    383","‚Äö√≥√®","67","dotpositionleft","singlestim","80"," 112046","c","left","correct","1",NA,"1","trialend","singlestim","81"," 113058"
"332","      1","healthyhealthy"," 1","healthy","positionleft","validityinvalid","test","1","positive","singlestim","79"," 165051","    489","‚Äö√≥√®","77","dotpositionright","singlestim","80"," 165593","m","right","correct","1",NA,"1","trialend","singlestim","81"," 166605"
"333","      1","touretoure"," 1","toure","positionleft","validityvalid","test","3","negative","singlestim","79"," 104659","    369","‚Äö√≥√®","67","dotpositionleft","singlestim","80"," 105080","c","left","correct","1",NA,"1","trialend","singlestim","81"," 106093"
"334","      1","braverybravery"," 1","bravery","positionleft","validityvalid","test","2","positive","singlestim","79"," 894918","    430","‚Äö√≥√®","67","dotpositionleft","singlestim","80"," 895400","c","left","correct","1",NA,"1","trialend","singlestim","81"," 896416"
"335","      1","cuttingcutting"," 1","cutting","positionright","validityvalid","test","3","suicide","singlestim","79","1000290","    436","‚Äö√≥√®","77","dotpositionright","singlestim","80","1000300","m","right","correct","1",NA,"1","trialend","singlestim","81","1000310"
"336","      1","strongstrong"," 1","strong","positionleft","validityvalid","test","3","positive","singlestim","79"," 138974","    551","‚Äö√≥√®","67","dotpositionleft","singlestim","80"," 139577","c","left","correct","1",NA,"1","trialend","singlestim","81"," 140589"
"337","      1","braverybravery"," 1","bravery","positionleft","validityvalid","test","2","positive","singlestim","79","  90591","    605","‚Äö√≥√®","67","dotpositionleft","singlestim","80","  91252","c","left","correct","1",NA,"1","trialend","singlestim","81","  92267"
"338","      1","structurestructure"," 1","structure","positionright","validityvalid","test","4","neutral","singlestim","79"," 120275","    383","‚Äö√≥√®","77","dotpositionright","singlestim","80"," 120709","m","right","correct","1",NA,"1","trialend","singlestim","81"," 121726"
"339","      1","patheticpathetic"," 1","pathetic","positionleft","validityvalid","test","1","negative","singlestim","79","1000290","    450","‚Äö√≥√®","67","dotpositionleft","singlestim","80","1000300","c","left","correct","1",NA,"1","trialend","singlestim","81","1000310"
"340","      1","killingkilling"," 1","killing","positionleft","validityvalid","test","4","suicide","singlestim","79","1000290","    608","‚Äö√≥√®","67","dotpositionleft","singlestim","80","1000300","c","left","correct","1",NA,"1","trialend","singlestim","81","1000310"
"341","      1","wohlesswohless"," 1","wohless","positionright","validityvalid","test","4","negative","singlestim","79","1000290","    425","‚Äö√≥√®","77","dotpositionright","singlestim","80","1000300","m","right","correct","1",NA,"1","trialend","singlestim","81","1000310"
"342","      1","closetcloset"," 1","closet","positionright","validityinvalid","test","3","neutral","singlestim","79"," 757589","    363","‚Äö√≥√®","67","dotpositionleft","singlestim","80"," 758007","c","left","correct","1",NA,"1","trialend","singlestim","81"," 759022"
"343","      1","frameframe"," 1","frame","positionleft","validityinvalid","test","4","neutral","singlestim","79"," 108369","    393","‚Äö√≥√®","77","dotpositionright","singlestim","80"," 108814","m","right","correct","1",NA,"1","trialend","singlestim","81"," 109828"
"344","      1","smilesmile"," 1","smile","positionleft","validityvalid","test","3","positive","singlestim","79"," 398893","    374","‚Äö√≥√®","67","dotpositionleft","singlestim","80"," 399319","c","left","correct","1",NA,"1","trialend","singlestim","81"," 400331"
"345","1000310","1"," 1","passionate","positionleft","validityinvalid","test","4","positive","singlestim","83"," 105784","661","","77","dotpositionright","singlestim","84"," 106501","1000340","m","correct","1",NA,"1","trialend","singlestim","85"," 107516"
"346","      1","patheticpathetic"," 1","pathetic","positionleft","validityvalid","test","1","negative","singlestim","83","  88671","371","‚Äö√≥√®","67","dotpositionleft","singlestim","84","  89094","c","left","correct","1",NA,"1","trialend","singlestim","85","  90108"
"347","    398","noosenoose","67","noose","positionleft","validityvalid","test","2","suicide","singlestim","83","2543887","399","‚Äö√≥√®","67","dotpositionleft","singlestim","84","2544340","c","left","correct","1",NA,"1","trialend","singlestim","85","2545353"
"348","      1","doubledouble"," 1","double","positionright","validityvalid","test","4","neutral","singlestim","83"," 104879","513","‚Äö√≥√®","77","dotpositionright","singlestim","84"," 105443","m","right","correct","1",NA,"1","trialend","singlestim","85"," 106457"
"349","      1","healthyhealthy"," 1","healthy","positionleft","validityinvalid","test","1","positive","singlestim","83"," 107884","450","‚Äö√≥√®","77","dotpositionright","singlestim","84"," 108386","m","right","correct","1",NA,"1","trialend","singlestim","85"," 109401"
"350","    366","attractionattraction","77","attraction","positionright","validityvalid","test","1","positive","singlestim","83"," 108675","345","‚Äö√≥√®","77","dotpositionright","singlestim","84"," 109072","m","right","correct","1",NA,"1","trialend","singlestim","85"," 110092"
"351","      1","failurefailure"," 1","failure","positionleft","validityvalid","test","2","negative","singlestim","83"," 898424","785","‚Äö√≥√®","67","dotpositionleft","singlestim","84"," 899264","c","left","correct","1",NA,"1","trialend","singlestim","85"," 900280"
"352","      1","closetcloset"," 1","closet","positionright","validityinvalid","test","3","neutral","singlestim","83","1000330","408","‚Äö√≥√®","67","dotpositionleft","singlestim","84","1000340","c","left","correct","1",NA,"1","trialend","singlestim","85","1000350"
"353","      1","deaddead"," 1","dead","positionleft","validityinvalid","test","3","suicide","singlestim","83"," 142593","434","‚Äö√≥√®","77","dotpositionright","singlestim","84"," 143080","m","right","correct","1",NA,"1","trialend","singlestim","85"," 144094"
"354","      1","deathdeath"," 1","death","positionright","validityvalid","test","2","suicide","singlestim","83","  94275","582","‚Äö√≥√®","77","dotpositionright","singlestim","84","  94913","m","right","correct","1",NA,"1","trialend","singlestim","85","  95932"
"355","      1","killingkilling"," 1","killing","positionleft","validityvalid","test","4","suicide","singlestim","83"," 123734","364","‚Äö√≥√®","67","dotpositionleft","singlestim","84"," 124151","c","left","correct","1",NA,"1","trialend","singlestim","85"," 125167"
"356","      1","foldedfolded"," 1","folded","positionleft","validityvalid","test","1","neutral","singlestim","83","1000330","428","‚Äö√≥√®","67","dotpositionleft","singlestim","84","1000340","c","left","correct","1",NA,"1","trialend","singlestim","85","1000350"
"357","      1","suicidesuicide"," 1","suicide","positionright","validityinvalid","test","4","suicide","singlestim","83","1000330","547","‚Äö√≥√®","67","dotpositionleft","singlestim","84","1000340","c","left","correct","1",NA,"1","trialend","singlestim","85","1000350"
"358","      1","doubledouble"," 1","double","positionright","validityvalid","test","4","neutral","singlestim","83","1000330","449","‚Äö√≥√®","77","dotpositionright","singlestim","84","1000340","m","right","correct","1",NA,"1","trialend","singlestim","85","1000350"
"359","      1","assaultassault"," 1","assault","positionleft","validityinvalid","test","3","negative","singlestim","83"," 761031","281","‚Äö√≥√®","77","dotpositionright","singlestim","84"," 761364","m","right","correct","1",NA,"1","trialend","singlestim","85"," 762383"
"360","      1","suicidesuicide"," 1","suicide","positionright","validityinvalid","test","4","suicide","singlestim","83"," 111831","313","‚Äö√≥√®","67","dotpositionleft","singlestim","84"," 112196","c","left","correct","1",NA,"1","trialend","singlestim","85"," 113208"
"361","      1","museummuseum"," 1","museum","positionleft","validityvalid","test","3","neutral","singlestim","83"," 402336","439","‚Äö√≥√®","67","dotpositionleft","singlestim","84"," 402827","c","left","correct","1",NA,"1","trialend","singlestim","85"," 403839"
"362","      1","tabletable"," 1","table","positionright","validityvalid","test","2","neutral","singlestim","83","  93802","419","‚Äö√≥√®","77","dotpositionright","singlestim","84","  94272","m","right","correct","1",NA,"1","trialend","singlestim","85","  95285"
"363","      1","attractionattraction"," 1","attraction","positionright","validityvalid","test","1","positive","singlestim","83","1000330","566","‚Äö√≥√®","77","dotpositionright","singlestim","84","1000340","m","right","correct","1",NA,"1","trialend","singlestim","85","1000350"
"364","      1","ecstaticecstatic"," 1","ecstatic","positionright","validityvalid","test","4","positive","singlestim","83","1000330","353","‚Äö√≥√®","77","dotpositionright","singlestim","84","1000340","m","right","correct","1",NA,"1","trialend","singlestim","85","1000350"
"365","      1","braverybravery"," 1","bravery","positionleft","validityvalid","test","2","positive","singlestim","83","1000330","353","‚Äö√≥√®","67","dotpositionleft","singlestim","84","1000340","c","left","correct","1",NA,"1","trialend","singlestim","85","1000350"
"366","      1","deathdeath"," 1","death","positionright","validityvalid","test","2","suicide","singlestim","83"," 487465","344","‚Äö√≥√®","77","dotpositionright","singlestim","84"," 487861","m","right","correct","1",NA,"1","trialend","singlestim","85"," 488875"
"367","      1","successsuccess"," 1","success","positionleft","validityvalid","test","4","positive","singlestim","83"," 116108","393","‚Äö√≥√®","67","dotpositionleft","singlestim","84"," 116553","c","left","correct","1",NA,"1","trialend","singlestim","85"," 117567"
"368","      1","statuestatue"," 1","statue","positionright","validityinvalid","test","1","neutral","singlestim","83","1000330","415","‚Äö√≥√®","67","dotpositionleft","singlestim","84","1000340","c","left","correct","1",NA,"1","trialend","singlestim","85","1000350"
"369","      1","doubledouble"," 1","double","positionright","validityvalid","test","4","neutral","singlestim","83","1000330","340","‚Äö√≥√®","77","dotpositionright","singlestim","84","1000340","m","right","correct","1",NA,"1","trialend","singlestim","85","1000350"
"370","      1","wohlesswohless"," 1","wohless","positionright","validityvalid","test","4","negative","singlestim","83","1000330","432","‚Äö√≥√®","77","dotpositionright","singlestim","84","1000340","m","right","correct","1",NA,"1","trialend","singlestim","85","1000350"
"371","      1","braverybravery"," 1","bravery","positionleft","validityvalid","test","2","positive","singlestim","83","1000330","906","‚Äö√≥√®","67","dotpositionleft","singlestim","84","1000340","c","left","correct","1",NA,"1","trialend","singlestim","85","1000350"
"372","      1","braverybravery"," 1","bravery","positionleft","validityvalid","test","2","positive","singlestim","83","1000330","830","‚Äö√≥√®","67","dotpositionleft","singlestim","84","1000340","c","left","correct","1",NA,"1","trialend","singlestim","85","1000350"
"373","      1","corpsecorpse"," 1","corpse","positionleft","validityvalid","test","2","suicide","singlestim","83","1000330","367","‚Äö√≥√®","67","dotpositionleft","singlestim","84","1000340","c","left","correct","1",NA,"1","trialend","singlestim","85","1000350"
"374","    455","greengreen","77","green","positionright","validityvalid","test","3","neutral","singlestim","83"," 115063","395","‚Äö√≥√®","77","dotpositionright","singlestim","84"," 115510","m","right","correct","1",NA,"1","trialend","singlestim","85"," 116524"
